acc_x, acc_y, angular_z, stamp, 
-0.012672245502471924, -0.0024480819702148438, -1.2857195554118235e-10, 1728074595806734161, 
0.002277970314025879, 0.0010204911231994629, -0.00031927921313437723, 1728074595838657216, 
0.09311217069625854, 0.004678964614868164, 0.0006687577681482538, 1728074595866109058, 
0.8069890141487122, 0.6744471788406372, 0.06686584105103985, 1728074595895258637, 
0.7105851173400879, 0.3166247606277466, 0.3114888782588567, 1728074595925251745, 
1.2131983041763306, 0.024813532829284668, 0.4307497511962433, 1728074595955240613, 
-0.11340010166168213, -0.011754333972930908, 0.4255496455441975, 1728074595985304674, 
0.04397153854370117, -0.23874348402023315, 0.4729132575528013, 1728074596015325310, 
-0.5084720849990845, 0.14623618125915527, 0.46623969216478295, 1728074596046501168, 
0.15773481130599976, 0.11184239387512207, 0.4110583301712347, 1728074596079081357, 
-0.5629411935806274, 0.02619725465774536, 0.44528305462432805, 1728074596105341767, 
-0.020632684230804443, -0.2499755620956421, 0.37201742535020454, 1728074596136006695, 
-0.17460721731185913, 0.20696300268173218, 0.35202182439205676, 1728074596166096301, 
0.17173004150390625, 0.25380218029022217, 0.35635855173678027, 1728074596196029022, 
-0.2825995087623596, -0.05959528684616089, 0.41303877547409923, 1728074596225204716, 
0.0565413236618042, -0.11905878782272339, 0.43185512384044206, 1728074596255464206, 
-0.03863710165023804, 0.15327918529510498, 0.4185486787604599, 1728074596287099241, 
-0.14942246675491333, 0.12170523405075073, 0.40677949439852523, 1728074596318618821, 
0.1548060178756714, -0.2017831802368164, 0.4703474347672164, 1728074596345551401, 
-0.07151168584823608, 0.04262232780456543, 0.4290344351831644, 1728074596375513006, 
0.15897876024246216, 0.01981973648071289, 0.42544659791213996, 1728074596405563450, 
0.05096733570098877, 0.01183176040649414, 0.42372739189539077, 1728074596435571838, 
-0.2712045907974243, 0.1775820255279541, 0.41250002381123224, 1728074596465660568, 
-0.007995069026947021, -0.06326138973236084, 0.40729583857149154, 1728074596495624702, 
0.0724414587020874, -0.0976904034614563, 0.39659742212933136, 1728074596526947834, 
0.0078081488609313965, 0.2459060549736023, 0.3963634456714039, 1728074596559189398, 
0.062466979026794434, -0.00728076696395874, 0.47080510326111025, 1728074596585632283, 
0.071999192237854, -0.12804734706878662, 0.41347910274849226, 1728074596615690014, 
-0.08336687088012695, 0.178908109664917, 0.431379630857607, 1728074596645701602, 
-0.031066417694091797, -0.08774405717849731, 0.4409163078482163, 1728074596675780147, 
-0.053981781005859375, -0.011506438255310059, 0.43273429262196333, 1728074596705791454, 
-0.02969127893447876, 0.25672465562820435, 0.44155428698679544, 1728074596735745410, 
0.16919630765914917, -0.15330570936203003, 0.42757641995444506, 1728074596766517469, 
-0.2769860029220581, -0.03744816780090332, 0.38539555151220395, 1728074596799277573, 
0.028614699840545654, 0.14018553495407104, 0.47643527569679744, 1728074596825877044, 
-0.05717766284942627, -0.12255334854125977, 0.41796575033698313, 1728074596855877839, 
0.13633477687835693, -0.040859222412109375, 0.43058547749791515, 1728074596885854157, 
-0.19020146131515503, 0.28929388523101807, 0.4462796138124928, 1728074596914895530, 
0.01614093780517578, -0.09897375106811523, 0.41057967651290567, 1728074596945955988, 
0.012695491313934326, 0.00234144926071167, 0.42720213804992835, 1728074596975957322, 
0.026323676109313965, -0.012144684791564941, 0.42966496604439547, 1728074597007016055, 
-0.09661555290222168, -0.14450275897979736, 0.39363353372382187, 1728074597039128724, 
-0.026958584785461426, 0.10947567224502563, 0.4666460131024589, 1728074597066035836, 
-0.10382062196731567, 0.13118231296539307, 0.43901988063187103, 1728074597095969931, 
0.08729666471481323, -0.07876747846603394, 0.42264121414791356, 1728074597126032873, 
-0.13168799877166748, -0.024463951587677002, 0.41752780578109294, 1728074597156103216, 
0.0010651946067810059, 0.002437889575958252, 0.43636533425796564, 1728074597186073152, 
0.11015492677688599, -0.023959457874298096, 0.4317329654339863, 1728074597216093060, 
0.028159618377685547, 0.04427766799926758, 0.4105573600668456, 1728074597246637638, 
-0.058558523654937744, 0.005388736724853516, 0.39598906090654634, 1728074597278690900, 
-0.3104323744773865, -0.03019624948501587, 0.48355935497360997, 1728074597305228966, 
0.29959022998809814, -0.07605475187301636, 0.4282665793388199, 1728074597336179576, 
-0.09852904081344604, 0.1758662462234497, 0.4386083691675808, 1728074597365231606, 
0.09763330221176147, -0.13866567611694336, 0.4090106699024371, 1728074597395213882, 
-0.009235739707946777, -0.010491907596588135, 0.41164762266391786, 1728074597426274650, 
-0.1448771357536316, 0.11226677894592285, 0.4505675057958567, 1728074597456316624, 
0.14028441905975342, -0.02741175889968872, 0.4232682518524952, 1728074597486229666, 
-0.01919722557067871, 0.04668396711349487, 0.3759960228802811, 1728074597518675269, 
-0.18437165021896362, 0.0062201619148254395, 0.4570315762170122, 1728074597546334425, 
0.1305113434791565, -0.04110991954803467, 0.41556680092319076, 1728074597576356886, 
0.04994302988052368, 0.08533585071563721, 0.40919368899243874, 1728074597606377879, 
-0.26986509561538696, -0.047114551067352295, 0.41947740171029785, 1728074597636386740, 
-0.16283035278320312, -0.02374565601348877, 0.4221032829744849, 1728074597666410109, 
-0.026646971702575684, 0.10043764114379883, 0.4222010428693711, 1728074597696400038, 
0.16246795654296875, -0.0037131309509277344, 0.42376843539617987, 1728074597726631792, 
0.04428583383560181, 0.0154685378074646, 0.396456475786335, 1728074597758690605, 
-0.15947288274765015, 0.0990288257598877, 0.4795731709291694, 1728074597786483004, 
0.2171541452407837, -0.16940665245056152, 0.46352586464043016, 1728074597816468272, 
0.10734051465988159, -0.07544112205505371, 0.42169647882727956, 1728074597846503773, 
-0.20288771390914917, 0.11347687244415283, 0.41286285196165373, 1728074597876543097, 
-0.3158069849014282, -0.031051933765411377, 0.41892548450331174, 1728074597906615910, 
0.21212494373321533, -0.020087063312530518, 0.39299355360938876, 1728074597936601818, 
0.15836471319198608, 0.09434235095977783, 0.3907522888393485, 1728074597966812618, 
0.029048442840576172, 0.015892982482910156, 0.3645075384277602, 1728074597999171407, 
-0.1433200240135193, -0.06055504083633423, 0.42853176585366076, 1728074598026719584, 
-0.22699546813964844, 0.17397820949554443, 0.4215547082012371, 1728074598056870899, 
-0.06993365287780762, 0.03817486763000488, 0.44550235274215455, 1728074598086669807, 
0.11757093667984009, -0.0949476957321167, 0.44061302506034977, 1728074598116720745, 
-0.3217621445655823, 0.09260064363479614, 0.45450855997462586, 1728074598146700370, 
0.42378073930740356, -0.12419939041137695, 0.4495726827607415, 1728074598176735639, 
-0.05624949932098389, 0.022474288940429688, 0.41847091195816843, 1728074598206702308, 
0.16329646110534668, 0.108134925365448, 0.39238454807223394, 1728074598239072641, 
-0.306399941444397, -0.03585582971572876, 0.4022451458793652, 1728074598268748657, 
0.2284061312675476, -0.10290926694869995, 0.436758117289203, 1728074598296802913, 
0.0605122447013855, 0.08870041370391846, 0.40480686204642824, 1728074598327132904, 
-0.13244569301605225, -0.05971425771713257, 0.3985743296593924, 1728074598356970069, 
-0.18384528160095215, 0.015874266624450684, 0.4145207270958446, 1728074598386887705, 
0.04945331811904907, 0.23068279027938843, 0.4339139323011184, 1728074598416952657, 
-0.018801212310791016, -0.14931946992874146, 0.434848889802975, 1728074598447050458, 
0.05409282445907593, -0.07854700088500977, 0.42469482973493045, 1728074598477956275, 
-0.3124411106109619, 0.22096014022827148, 0.42360759357919364, 1728074598509796150, 
0.12886512279510498, -0.10495299100875854, 0.5064357208673893, 1728074598537037354, 
0.14119470119476318, -0.03955787420272827, 0.44564661581538717, 1728074598565976555, 
-0.13425594568252563, 0.07150501012802124, 0.4041413271788505, 1728074598597006080, 
-0.14613205194473267, -0.09642434120178223, 0.40564722551850396, 1728074598627012656, 
0.0859333872795105, -0.06403458118438721, 0.4299020915950561, 1728074598657062262, 
-0.007972419261932373, 0.1807461380958557, 0.43268561043343085, 1728074598687114542, 
-0.004261791706085205, -0.01702570915222168, 0.3810736154889093, 1728074598718848121, 
-0.11780023574829102, -0.024177372455596924, 0.40117783912894994, 1728074598749826127, 
0.05831676721572876, 0.08273899555206299, 0.48844710306580014, 1728074598777138631, 
-0.09264856576919556, -0.16235756874084473, 0.42431743886726114, 1728074598807114605, 
0.11933320760726929, 0.07409536838531494, 0.4186440133599753, 1728074598837168475, 
-0.4393814206123352, 0.11352396011352539, 0.4598679091162955, 1728074598866207590, 
0.3846101760864258, -0.17692553997039795, 0.4560560329919179, 1728074598896215599, 
-0.0560416579246521, 0.0319751501083374, 0.4176774017801038, 1728074598927309734, 
-0.050546228885650635, 0.1058272123336792, 0.39043148358783386, 1728074598959305935, 
-0.06180077791213989, 0.002672910690307617, 0.3913922175862644, 1728074598990705072, 
0.12409144639968872, -0.015297293663024902, 0.48880648663654996, 1728074599017327792, 
-0.06743496656417847, 0.040965378284454346, 0.4178259420128841, 1728074599047326121, 
0.030627787113189697, -0.10622280836105347, 0.4001762684398445, 1728074599077358133, 
-0.17517685890197754, 0.0105513334274292, 0.4087193132714179, 1728074599107348657, 
-0.061317384243011475, 0.08212530612945557, 0.40078343391403803, 1728074599137416715, 
-0.10853803157806396, -0.029969632625579834, 0.4019463558563888, 1728074599167460835, 
-0.041783690452575684, 0.11673641204833984, 0.4072915929743273, 1728074599198889722, 
-0.06905263662338257, 0.042606472969055176, 0.4291711927796071, 1728074599230278925, 
-0.1623629331588745, -0.24545902013778687, 0.4838484076242035, 1728074599257458980, 
0.4067574143409729, -0.00696033239364624, 0.41275743981670954, 1728074599287440404, 
-0.19029057025909424, 0.21526598930358887, 0.43942429401320704, 1728074599317455873, 
-0.04981106519699097, 0.00783473253250122, 0.4359867119215087, 1728074599347476352, 
-0.01734071969985962, -0.01851058006286621, 0.43281205864072986, 1728074599377520900, 
0.13764792680740356, -0.12511712312698364, 0.4309252396162599, 1728074599407555556, 
0.11650967597961426, 0.07719182968139648, 0.3787805158023876, 1728074599438849346, 
-0.11883628368377686, 0.06523007154464722, 0.3545581052580694, 1728074599471543067, 
-0.08725601434707642, -0.061334192752838135, 0.43810634269435256, 1728074599497711932, 
-0.07821047306060791, -0.037378549575805664, 0.38558953477935254, 1728074599527622917, 
-0.050395309925079346, 0.17537939548492432, 0.4163484307757327, 1728074599557641618, 
-0.34829747676849365, -0.04027843475341797, 0.45240235549990115, 1728074599587665564, 
0.3203514814376831, -0.13695579767227173, 0.4581967246906558, 1728074599617692714, 
-0.07656913995742798, 0.24606454372406006, 0.457407760998063, 1728074599647726657, 
0.2114848494529724, -0.07789069414138794, 0.4440746589125112, 1728074599678962029, 
-0.41594117879867554, -0.11757725477218628, 0.39931874579107063, 1728074599710697841, 
0.352705717086792, 0.05450350046157837, 0.4823812985806119, 1728074599737820114, 
-0.14133036136627197, 0.05645942687988281, 0.4086153718955484, 1728074599767778825, 
0.06371313333511353, -0.10402178764343262, 0.40458492631535203, 1728074599797759432, 
-0.06330221891403198, 0.03342866897583008, 0.40544313126389736, 1728074599827795729, 
-0.10876309871673584, -0.02562868595123291, 0.3950836314109227, 1728074599857823850, 
0.007194221019744873, -0.08096581697463989, 0.39808662658986954, 1728074599887878342, 
-0.16475975513458252, 0.1635001301765442, 0.40373262441823765, 1728074599919691432, 
0.02715820074081421, 0.08122491836547852, 0.428841655722024, 1728074599950818962, 
0.05646157264709473, -0.203377366065979, 0.5058206103440249, 1728074599978115209, 
-0.15736013650894165, -0.049846112728118896, 0.43384592663728844, 1728074600007953199, 
0.04126232862472534, 0.05420100688934326, 0.4108473692830494, 1728074600037956599, 
-0.10324335098266602, 0.04304015636444092, 0.4227022868904461, 1728074600067976083, 
0.024726808071136475, 0.08898401260375977, 0.4354529014492284, 1728074600098032495, 
-0.10722148418426514, -0.13283491134643555, 0.4100384970617108, 1728074600128056045, 
0.005726814270019531, -0.03996384143829346, 0.4027948704511226, 1728074600159017271, 
-0.15120601654052734, 0.19549602270126343, 0.41764790590591405, 1728074600189858229, 
-0.054513394832611084, -0.18021589517593384, 0.4487205821663592, 1728074600218077063, 
-0.16152739524841309, -0.1449594497680664, 0.4110004331676418, 1728074600248094487, 
0.04295068979263306, 0.2612842917442322, 0.41386226788216735, 1728074600278099985, 
-0.17547762393951416, -0.03909313678741455, 0.42249966975822906, 1728074600308119987, 
0.04866427183151245, -0.008754372596740723, 0.42438644482574506, 1728074600338170333, 
-0.10409432649612427, 0.10799163579940796, 0.4240040153010195, 1728074600368196554, 
0.2224133014678955, -0.082217276096344, 0.4182480112606292, 1728074600399053425, 
-0.32975906133651733, -0.02626115083694458, 0.4208718982018874, 1728074600431504211, 
0.06439834833145142, 0.11449724435806274, 0.5155371931808084, 1728074600458278105, 
-0.06466007232666016, -0.0006562471389770508, 0.41065688159342373, 1728074600488282754, 
0.13038206100463867, -0.05983877182006836, 0.4215219903601142, 1728074600518297750, 
-0.03418111801147461, 0.10600584745407104, 0.43558383079794, 1728074600548334963, 
-0.05125999450683594, -0.1419723629951477, 0.42058305334553797, 1728074600578326109, 
-0.123077392578125, 0.06726664304733276, 0.41895194283049886, 1728074600608396327, 
-0.08200359344482422, 0.06776344776153564, 0.40761964696150954, 1728074600638964185, 
-0.05280756950378418, -0.18989932537078857, 0.371421161025387, 1728074600671107361, 
-0.15528661012649536, 0.06939786672592163, 0.447788661150842, 1728074600698479714, 
-0.03936105966567993, 0.20479309558868408, 0.4239216085961838, 1728074600728436435, 
-0.06736499071121216, -0.041362762451171875, 0.42786684187868945, 1728074600758490430, 
0.10522836446762085, 0.13930141925811768, 0.44484977232077505, 1728074600788749990, 
0.027226030826568604, -0.05462926626205444, 0.4638638559964848, 1728074600818607597, 
0.032842934131622314, -0.1774389147758484, 0.4310849769546813, 1728074600848585647, 
-0.06205594539642334, 0.125777006149292, 0.4143188651100632, 1728074600879430107, 
-0.11165934801101685, 0.07497358322143555, 0.4027073486931884, 1728074600910861668, 
0.14455652236938477, -0.1150285005569458, 0.4455017400088598, 1728074600938614780, 
-0.004747569561004639, 0.039270222187042236, 0.40252438135724583, 1728074600968576301, 
-0.1831468939781189, -0.001589953899383545, 0.4067275039659924, 1728074600998583704, 
-0.12801504135131836, -0.04296845197677612, 0.4009147064161778, 1728074601028639387, 
0.10395824909210205, 0.09159445762634277, 0.41195323195550654, 1728074601058654056, 
-0.2617780566215515, 0.04089897871017456, 0.4140591471614952, 1728074601088681457, 
0.09840184450149536, -0.10959547758102417, 0.40782154025646267, 1728074601119522128, 
-0.22278845310211182, 0.14304286241531372, 0.40986526494123326, 1728074601151260726, 
0.1424177885055542, -0.009145975112915039, 0.5053815187666741, 1728074601178760315, 
0.06372612714767456, -0.023521602153778076, 0.42284529277336524, 1728074601208755068, 
0.033191680908203125, -0.016559898853302002, 0.4216597944567652, 1728074601238760332, 
-0.23114013671875, 0.05142945051193237, 0.4286675878536406, 1728074601268796585, 
0.10464203357696533, -0.016086161136627197, 0.4245326465310163, 1728074601298835380, 
0.05675321817398071, 0.009685039520263672, 0.4198931937392415, 1728074601328815235, 
-0.0516321063041687, -0.13619327545166016, 0.42329136213106133, 1728074601359020627, 
-0.02738720178604126, 0.09314680099487305, 0.37979997986959196, 1728074601391451267, 
-0.041622936725616455, 0.21512556076049805, 0.42585084147525487, 1728074601420960352, 
-0.10465365648269653, -0.10256242752075195, 0.429535647353286, 1728074601448887611, 
-0.08099973201751709, -0.1162533164024353, 0.3988170814652865, 1728074601478917398, 
-0.21695375442504883, 0.30813872814178467, 0.4283950041383638, 1728074601508947612, 
0.053604960441589355, 0.06158947944641113, 0.4342291775908818, 1728074601538976275, 
0.08918911218643188, -0.24362200498580933, 0.4257107683764351, 1728074601568993519, 
-0.0131453275680542, 0.1704573631286621, 0.43854729999245345, 1728074601599336654, 
0.04805678129196167, 0.029452025890350342, 0.41921508054939843, 1728074601631280058, 
-0.18876153230667114, -0.08931368589401245, 0.4439245693592287, 1728074601661325316, 
-0.12207788228988647, 0.007192492485046387, 0.4604109513508668, 1728074601699061245, 
-0.2212275266647339, -0.07149899005889893, 0.4199406050447084, 1728074601729099484, 
0.11799144744873047, 0.06401944160461426, 0.421133883604285, 1728074601759116738, 
-0.1361742615699768, 0.0438116192817688, 0.39039750924997585, 1728074601789995789, 
0.032734215259552, -0.07870030403137207, 0.3703663686948226, 1728074601820590761, 
-0.31866687536239624, 0.17810773849487305, 0.4306685620697459, 1728074601849251558, 
0.11903268098831177, 0.08359813690185547, 0.4312111468515508, 1728074601879158637, 
-0.0672217607498169, -0.14855343103408813, 0.3620344064649095, 1728074601902444649, 
-0.20608454942703247, 0.05733698606491089, 0.4621189311609115, 1728074601939187441, 
-0.16095441579818726, 0.10319769382476807, 0.437391572089284, 1728074601969245381, 
-0.010646224021911621, -0.10278445482254028, 0.436626842109982, 1728074601999375084, 
0.010344207286834717, 0.03184688091278076, 0.40306822113348445, 1728074602031427512, 
-0.11607962846755981, 0.02358347177505493, 0.4013823308720585, 1728074602062603172, 
-0.16276675462722778, -0.10684585571289062, 0.45068827093080555, 1728074602099331159, 
-0.05127602815628052, 0.14240211248397827, 0.41897939892131086, 1728074602129387641, 
0.0674368143081665, -0.00879824161529541, 0.3860766407593829, 1728074602159619207, 
-0.023413777351379395, -0.11632305383682251, 0.38221868219661925, 1728074602190923091, 
-0.21516263484954834, 0.14690107107162476, 0.40532391831571407, 1728074602223044841, 
0.12369352579116821, 0.08608740568161011, 0.5001149852648141, 1728074602249533448, 
0.09623098373413086, -0.1235232949256897, 0.4210308387560554, 1728074602279482148, 
-0.1465880274772644, 0.035804033279418945, 0.4347966809158105, 1728074602309586082, 
-0.31246471405029297, 0.003781914710998535, 0.4517397132791567, 1728074602339500768, 
0.1336688995361328, -0.10648602247238159, 0.43984348726110334, 1728074602369537813, 
-0.26114410161972046, 0.1794891357421875, 0.4145427252189841, 1728074602399567161, 
0.06337517499923706, -0.009826064109802246, 0.39054210962978747, 1728074602430983909, 
-0.23581647872924805, 0.07000905275344849, 0.39490905542859706, 1728074602462951782, 
-0.3876835107803345, 0.025813162326812744, 0.47318624853346913, 1728074602499908523, 
0.27639174461364746, -0.18505531549453735, 0.41598042394800605, 1728074602529627854, 
-0.12359821796417236, 0.11224454641342163, 0.4189187439433684, 1728074602559689815, 
-0.13767355680465698, 0.13494724035263062, 0.41077435903176485, 1728074602590895805, 
-0.07376313209533691, -0.07374006509780884, 0.39915582002916883, 1728074602622882103, 
-0.17687100172042847, 0.019433915615081787, 0.4607265390377061, 1728074602649766426, 
-0.11975842714309692, 0.03168594837188721, 0.406491526290381, 1728074602679754591, 
0.015497863292694092, 0.032334208488464355, 0.4083511133802803, 1728074602709757038, 
-0.07680541276931763, 0.10336893796920776, 0.4322435026747198, 1728074602739766118, 
-0.10236430168151855, -0.06417441368103027, 0.42343913548803286, 1728074602769834040, 
-0.07154214382171631, -0.11002445220947266, 0.4149105489054741, 1728074602799813061, 
0.027217626571655273, 0.18970561027526855, 0.40773079080994856, 1728074602831613813, 
-0.1395929455757141, 0.02967667579650879, 0.42145040929058697, 1728074602863389114, 
-0.11783087253570557, -0.02231055498123169, 0.4454953587173902, 1728074602899876643, 
-0.1765502691268921, 0.061699509620666504, 0.41831561604388395, 1728074602929957139, 
-0.023119688034057617, 0.01573580503463745, 0.419846504427801, 1728074602959926282, 
-0.061196982860565186, 0.012590408325195312, 0.3679580289152569, 1728074602991459827, 
-0.09110528230667114, 0.042988479137420654, 0.37743287015092236, 1728074603022878098, 
-0.15316885709762573, -0.04980194568634033, 0.44919994999719276, 1728074603050047057, 
0.08005541563034058, 0.09806811809539795, 0.41843386125063275, 1728074603080066523, 
-0.11917036771774292, 0.1648019552230835, 0.43590778437187816, 1728074603110029731, 
-0.09423595666885376, -0.21087992191314697, 0.4330356647622226, 1728074603140095333, 
0.08652043342590332, -0.016429901123046875, 0.41771759378782297, 1728074603170140313, 
-0.04612618684768677, 0.09969043731689453, 0.4311224702535967, 1728074603200154249, 
-0.16795063018798828, -0.005755066871643066, 0.40297147385432863, 1728074603231046076, 
0.028589725494384766, 0.09911137819290161, 0.3753091976734932, 1728074603263153460, 
-0.10724145174026489, 0.06758999824523926, 0.4897547197674738, 1728074603289235455, 
0.2562219500541687, -0.05278974771499634, 0.40856789316499764, 1728074603320160614, 
-0.24952197074890137, 0.07731801271438599, 0.4210426818959133, 1728074603349197350, 
0.07793796062469482, 0.17028558254241943, 0.4129296477941484, 1728074603379205174, 
-0.1527566909790039, -0.0799483060836792, 0.40608979992611827, 1728074603410307726, 
-0.019373714923858643, 0.06024664640426636, 0.4741158275741648, 1728074603438227442, 
-0.16084980964660645, 0.12742626667022705, 0.4176032708071985, 1728074603469964053, 
-0.15452009439468384, -0.08671057224273682, 0.3906481906628122, 1728074603503601847, 
-0.2730313539505005, 0.07247984409332275, 0.4995273143277021, 1728074603530321813, 
0.14639323949813843, 0.055541276931762695, 0.4419831813278918, 1728074603560333822, 
0.011193454265594482, -0.09911787509918213, 0.419522169476805, 1728074603590454468, 
-0.07586729526519775, 0.04621988534927368, 0.4193374057925234, 1728074603620384963, 
-0.2671818137168884, 0.0707206130027771, 0.4157824413151112, 1728074603650492865, 
0.3888428211212158, -0.09870868921279907, 0.4168624203979729, 1728074603680422880, 
-0.20173215866088867, 0.21771317720413208, 0.39648881060595975, 1728074603711029545, 
0.03128761053085327, 0.14778929948806763, 0.3832585120947752, 1728074603743042912, 
-0.20825350284576416, -0.15559697151184082, 0.46325243677108047, 1728074603770490409, 
0.2533677816390991, 0.041362226009368896, 0.4355124854906705, 1728074603800531482, 
-0.2464575171470642, 0.15994209051132202, 0.4322067803386294, 1728074603830518590, 
0.01279360055923462, -0.09234452247619629, 0.4167252440546254, 1728074603860558874, 
-0.3216697573661804, 0.10030949115753174, 0.4216607846363943, 1728074603890564083, 
0.3144092559814453, 0.10967940092086792, 0.4307550288893201, 1728074603920640262, 
-0.07101225852966309, -0.10102009773254395, 0.3948126604480837, 1728074603951984442, 
0.08385932445526123, -0.01699662208557129, 0.40850781656308977, 1728074603983074591, 
-0.325855016708374, 0.1369132399559021, 0.45604580347231005, 1728074604010629262, 
0.14752429723739624, -0.040993452072143555, 0.4098661257233178, 1728074604040734538, 
-0.048308610916137695, 0.10128772258758545, 0.39820052357391633, 1728074604071639443, 
-0.17239761352539062, 0.010148465633392334, 0.4166153058330781, 1728074604100704329, 
-0.02529430389404297, -0.08524078130722046, 0.4019158712168294, 1728074604130747106, 
-0.08706498146057129, 0.18461138010025024, 0.42307413532576815, 1728074604160753411, 
-0.052365660667419434, 0.04898160696029663, 0.4204760523113393, 1728074604191462039, 
0.0945165753364563, -0.044379353523254395, 0.4016061539798205, 1728074604222977403, 
-0.06161093711853027, 0.11325186491012573, 0.46843455742496676, 1728074604250840982, 
-0.2053220272064209, 0.002756953239440918, 0.4307602733864658, 1728074604281549878, 
0.02857893705368042, -0.0605776309967041, 0.42655522770011384, 1728074604311555490, 
-0.10221195220947266, 0.09105122089385986, 0.4348051154404541, 1728074604341450096, 
-0.1633855700492859, 0.09992140531539917, 0.4442717865288284, 1728074604371461284, 
0.11222946643829346, -0.05719435214996338, 0.4335661412119788, 1728074604401538354, 
-0.01820969581604004, 0.08658456802368164, 0.41549410189204183, 1728074604431464567, 
-0.0006136298179626465, -0.0040318965911865234, 0.3845589058376948, 1728074604463408889, 
-0.05619746446609497, 0.04408484697341919, 0.3982560203951896, 1728074604493026232, 
-0.09378743171691895, 0.1354089379310608, 0.4367094267037997, 1728074604521582945, 
-0.1490054726600647, -0.02259451150894165, 0.43465834564631783, 1728074604551534366, 
-0.02428746223449707, 0.016163766384124756, 0.41874736941629964, 1728074604581595359, 
-0.03639388084411621, 0.10992777347564697, 0.4292010812986885, 1728074604611741776, 
0.0088539719581604, 0.01701587438583374, 0.44865448438555494, 1728074604641555533, 
-0.031194031238555908, 0.06696999073028564, 0.4169374088963155, 1728074604671656906, 
-0.055976688861846924, 0.04425346851348877, 0.4119157249330855, 1728074604703015506, 
-0.23098742961883545, 0.023382246494293213, 0.43204816617209507, 1728074604733138320, 
0.03460884094238281, -0.0008393526077270508, 0.426956288520269, 1728074604761636142, 
0.09224390983581543, 0.07551467418670654, 0.41465100745936695, 1728074604791631201, 
-0.028129518032073975, 0.028714120388031006, 0.412466682008427, 1728074604821597863, 
-0.06915926933288574, 0.0729019045829773, 0.39888727077733305, 1728074604851708443, 
-0.164048969745636, 0.10620522499084473, 0.4196308502754004, 1728074604881707074, 
-0.00689321756362915, -0.03217226266860962, 0.4344752661698332, 1728074604911842309, 
0.04960852861404419, 0.13431644439697266, 0.3989320858370133, 1728074604943061221, 
-0.2970585227012634, 0.038213372230529785, 0.4250167798328328, 1728074604973709953, 
0.22245240211486816, -0.11557430028915405, 0.4689720342158169, 1728074605001646562, 
0.15251374244689941, 0.1466749906539917, 0.4014362835494869, 1728074605031667767, 
-0.1627451777458191, 0.052214980125427246, 0.42644199199755023, 1728074605061661084, 
-0.04182225465774536, -0.03670501708984375, 0.42792506512146056, 1728074605091679426, 
-0.03655195236206055, 0.011578679084777832, 0.430538159810398, 1728074605121659761, 
-0.021559715270996094, 0.10332423448562622, 0.4171326698104011, 1728074605151820311, 
0.008231580257415771, 0.019025325775146484, 0.387427356894857, 1728074605183348270, 
-0.06357204914093018, 0.040044307708740234, 0.40233811339617676, 1728074605214165891, 
-0.05044662952423096, 0.07022595405578613, 0.4458960925554505, 1728074605241745372, 
-0.028542280197143555, 0.06788933277130127, 0.41396491765582927, 1728074605271737443, 
-0.04965031147003174, 0.11897337436676025, 0.4336245757270583, 1728074605301775679, 
-0.26241523027420044, 0.08777809143066406, 0.43562849090508554, 1728074605331809834, 
0.1410800814628601, -0.14063704013824463, 0.42666032986392527, 1728074605361786927, 
-0.09663867950439453, 0.10390079021453857, 0.426675070160924, 1728074605391840498, 
-0.03055262565612793, 0.2145446538925171, 0.41347040584867356, 1728074605423426959, 
0.06437093019485474, -0.045620083808898926, 0.4183277827428225, 1728074605454588047, 
0.0026369690895080566, 0.07054483890533447, 0.48865709156997084, 1728074605482038321, 
0.02603590488433838, 0.12530672550201416, 0.431336182487265, 1728074605511854512, 
-0.027350246906280518, -0.03098618984222412, 0.4168667916109028, 1728074605541809845, 
0.0021689534187316895, 0.041394054889678955, 0.402427247617011, 1728074605571855311, 
-0.07231390476226807, 0.004489481449127197, 0.39167565806623117, 1728074605601893258, 
-0.03243601322174072, 0.007575392723083496, 0.3763128823992401, 1728074605631956262, 
-0.2550806999206543, 0.23288285732269287, 0.3969677899075333, 1728074605662286107, 
-0.065188467502594, 0.1160956621170044, 0.3777079880215163, 1728074605695070365, 
-0.22168147563934326, -0.15298718214035034, 0.476327079314153, 1728074605722245894, 
-0.0436130166053772, 0.188637375831604, 0.4699916106036641, 1728074605752007924, 
-0.11431074142456055, 0.13239598274230957, 0.46862714835129704, 1728074605781973046, 
0.35280442237854004, -0.19529300928115845, 0.44384078799410764, 1728074605811968800, 
-0.4235684275627136, 0.08205026388168335, 0.4427249212872283, 1728074605841938283, 
0.1240013837814331, 0.029650628566741943, 0.4186235427257391, 1728074605871970748, 
-0.3089190125465393, -0.04176968336105347, 0.37961160596832405, 1728074605903005015, 
0.1476309895515442, 0.15460628271102905, 0.36092020172535494, 1728074605935436716, 
-0.19973546266555786, -0.00929558277130127, 0.46798667147102857, 1728074605961201854, 
0.026857495307922363, 0.014992475509643555, 0.37901759503134846, 1728074605991975078, 
-0.16683655977249146, 0.18875008821487427, 0.40654458627376916, 1728074606021930018, 
-0.207109272480011, -0.007543742656707764, 0.4245370449559284, 1728074606051967655, 
0.007829666137695312, 0.06466174125671387, 0.45170085639783814, 1728074606082027198, 
0.05998969078063965, 0.2045554518699646, 0.45691379329245596, 1728074606112002497, 
0.039588868618011475, -0.142461359500885, 0.43791228019082035, 1728074606143033782, 
-0.21286970376968384, -0.0028676390647888184, 0.4202811916984615, 1728074606175282831, 
0.06589198112487793, 0.1839473843574524, 0.5060493815283927, 1728074606202181856, 
0.04707133769989014, -0.08952140808105469, 0.41963759994730676, 1728074606232114365, 
0.03517860174179077, 0.05870521068572998, 0.39212493838263685, 1728074606262166378, 
-0.1268010139465332, 0.13291621208190918, 0.4206858403849019, 1728074606292140296, 
0.047016024589538574, 0.0068160295486450195, 0.4235669540979725, 1728074606322185101, 
0.016353964805603027, -0.06290215253829956, 0.4070179403516301, 1728074606351203291, 
-0.11439532041549683, 0.10528898239135742, 0.37754066383544516, 1728074606383473522, 
-0.18858104944229126, 0.01944124698638916, 0.40690471380305043, 1728074606415377460, 
-0.00036531686782836914, 0.11462748050689697, 0.5040445051055018, 1728074606441227696, 
0.07964825630187988, 0.21863943338394165, 0.42705895842159175, 1728074606472250978, 
-0.152551531791687, -0.007519543170928955, 0.4408540729499882, 1728074606502264294, 
-0.14388316869735718, -0.10273921489715576, 0.4220246290829837, 1728074606532331072, 
0.14779424667358398, 0.01688927412033081, 0.44693424669110887, 1728074606562378083, 
0.18095582723617554, -0.02648991346359253, 0.43069118836941356, 1728074606591369604, 
-0.0418817400932312, 0.09346455335617065, 0.3850762035377463, 1728074606623147075, 
-0.15840601921081543, 0.08461332321166992, 0.39847138698742784, 1728074606655537764, 
0.10255414247512817, 0.007141709327697754, 0.47494213962606907, 1728074606681712148, 
-0.04280823469161987, 0.07800853252410889, 0.3895765272593816, 1728074606712458106, 
-0.20077240467071533, 0.01101219654083252, 0.40267310658395256, 1728074606742467638, 
-0.06842809915542603, 0.01972097158432007, 0.3918189924706605, 1728074606772470516, 
-0.08778905868530273, 0.2231265902519226, 0.4011835076950432, 1728074606802533656, 
-0.14063221216201782, 0.11801588535308838, 0.4303625188974862, 1728074606832535848, 
0.13169550895690918, -0.05425715446472168, 0.41930205802494513, 1728074606863455930, 
-0.2981942892074585, 0.09494680166244507, 0.4146965529583669, 1728074606895529922, 
-0.014787912368774414, 0.2104952335357666, 0.4860893131470322, 1728074606922586386, 
0.3324142098426819, -0.10729807615280151, 0.4155624301863989, 1728074606952582182, 
-0.09787368774414062, -0.002286672592163086, 0.42925708189419925, 1728074606982626337, 
-0.08223545551300049, 0.158697247505188, 0.44079563636871844, 1728074607012608502, 
-0.06167244911193848, 0.08350402116775513, 0.42858188508074313, 1728074607042686386, 
-0.01735621690750122, 0.022826969623565674, 0.4150143346842454, 1728074607072632700, 
-0.05043184757232666, 0.04590415954589844, 0.3782164273877696, 1728074607103159212, 
0.008759915828704834, 0.00044101476669311523, 0.35736667986278603, 1728074607134252715, 
-0.1609208583831787, 0.2215350866317749, 0.42264946176321955, 1728074607162802300, 
-0.20749032497406006, 0.14565569162368774, 0.42037320201415346, 1728074607192698196, 
-0.19601428508758545, -0.07908612489700317, 0.4381283453752876, 1728074607222796286, 
-0.21220648288726807, 0.1581641435623169, 0.471215143001749, 1728074607252773612, 
0.0454254150390625, 0.22466278076171875, 0.47437459449668595, 1728074607282866199, 
0.15048402547836304, -0.22878694534301758, 0.44716482019422954, 1728074607312837755, 
-0.06997853517532349, 0.06350529193878174, 0.42830613271261947, 1728074607343569914, 
0.10829323530197144, -0.05716937780380249, 0.4267986854182361, 1728074607375133908, 
-0.03299027681350708, 0.007799863815307617, 0.4600260629856002, 1728074607403032065, 
0.020867586135864258, 0.12547308206558228, 0.41038484539766734, 1728074607432872631, 
-0.009264230728149414, 0.07194316387176514, 0.3902152310176043, 1728074607462935030, 
-0.22201591730117798, -0.10086101293563843, 0.40086055057506276, 1728074607492915939, 
0.0699494481086731, 0.22174447774887085, 0.4248337606212343, 1728074607522985771, 
-0.19693315029144287, 0.09075319766998291, 0.415431014072256, 1728074607552939866, 
0.13598567247390747, -0.11179250478744507, 0.417363118930873, 1728074607583163818, 
-0.026207804679870605, 0.18358612060546875, 0.4275938199534455, 1728074607615154993, 
-0.07393062114715576, 0.06025040149688721, 0.4823564558469034, 1728074607643095727, 
0.012547612190246582, -0.07981973886489868, 0.41567064086769406, 1728074607673032079, 
-0.05443495512008667, 0.1019945740699768, 0.4312566154360908, 1728074607703094825, 
-0.06781232357025146, 0.08378112316131592, 0.43790038285903565, 1728074607732301337, 
0.14637386798858643, 0.016376614570617676, 0.4088634369441537, 1728074607763170200, 
-0.06182372570037842, 0.09836113452911377, 0.42323326620858204, 1728074607792285573, 
-0.10479158163070679, -0.08767086267471313, 0.3981520355917179, 1728074607823190864, 
-0.01754385232925415, -0.022889137268066406, 0.37761465824291407, 1728074607855595017, 
-0.08321893215179443, 0.19012194871902466, 0.41568729445790376, 1728074607885340550, 
-0.0677524209022522, 0.011858165264129639, 0.453762667988215, 1728074607912283238, 
-0.04261881113052368, -0.0468752384185791, 0.4057362988623608, 1728074607943373589, 
-0.21724945306777954, 0.2163822054862976, 0.4435015760917858, 1728074607973305430, 
0.0017513632774353027, 0.017750024795532227, 0.4337789051992864, 1728074608003366148, 
0.1263248324394226, -0.005912601947784424, 0.4232578596815413, 1728074608033308417, 
-0.10266423225402832, 0.1406671404838562, 0.43948508032410133, 1728074608063404813, 
-0.17887896299362183, 0.10752570629119873, 0.40866875019325155, 1728074608095456530, 
0.11064672470092773, 0.0084153413772583, 0.42044165243888704, 1728074608125686368, 
0.026775836944580078, -0.033126771450042725, 0.45499312667677133, 1728074608153435705, 
0.02463167905807495, 0.05614137649536133, 0.40978204319269396, 1728074608183477856, 
0.035090088844299316, 0.034604787826538086, 0.405640418056968, 1728074608213504839, 
-0.10031986236572266, 0.09775310754776001, 0.43261425306498763, 1728074608242458635, 
-0.1576349139213562, 0.03252142667770386, 0.39908112870518164, 1728074608273457461, 
-0.1836531162261963, 0.10542219877243042, 0.4004465374106855, 1728074608302606984, 
-0.25500088930130005, 0.031785011291503906, 0.37440590126454676, 1728074608335158665, 
0.24834585189819336, 0.061023592948913574, 0.4201113068439788, 1728074608366185787, 
-0.19367623329162598, 0.13218629360198975, 0.49405517594313286, 1728074608393626717, 
0.09207648038864136, 0.029489576816558838, 0.4637222139139874, 1728074608423581605, 
-0.16335982084274292, -0.06119835376739502, 0.4562519902786674, 1728074608453574115, 
0.12825363874435425, 0.08721202611923218, 0.44105553891922117, 1728074608483611884, 
-0.16251999139785767, -0.037374138832092285, 0.42718533838140166, 1728074608513627047, 
-0.034048259258270264, -0.06076991558074951, 0.4064309504155312, 1728074608543641038, 
-0.0042896270751953125, 0.14576387405395508, 0.36240595525845054, 1728074608576039748, 
0.22528278827667236, 0.10564297437667847, 0.4012738558811622, 1728074608606705436, 
-0.10217875242233276, -0.02774989604949951, 0.44355989718441385, 1728074608633823970, 
-0.07021099328994751, 0.13628709316253662, 0.4164599322459665, 1728074608663730110, 
-0.10701149702072144, 0.16350805759429932, 0.43223738263302464, 1728074608693714692, 
0.10162979364395142, -0.03269428014755249, 0.4229499546712514, 1728074608723802472, 
-0.1805058717727661, 0.0011755824089050293, 0.4361417585282852, 1728074608753824696, 
-0.08129638433456421, 0.12439543008804321, 0.44253072268823535, 1728074608783809974, 
-0.18863332271575928, 0.08784019947052002, 0.41445108943344605, 1728074608815593230, 
0.05700486898422241, 0.1174546480178833, 0.4358194202543801, 1728074608846211899, 
0.031814634799957275, 0.08487701416015625, 0.4460781906626813, 1728074608873905590, 
0.15099602937698364, -0.12129843235015869, 0.40939530584818273, 1728074608903899985, 
-0.15919041633605957, 0.14207559823989868, 0.4212842765165047, 1728074608933918651, 
0.2887740731239319, 0.19934439659118652, 0.4147291505678507, 1728074608963949728, 
-0.035368919372558594, -0.13356733322143555, 0.3997461820357913, 1728074608994013003, 
-0.06099867820739746, 0.19581836462020874, 0.4145554761206893, 1728074609024251449, 
-0.11431884765625, 0.06554275751113892, 0.40174215398789376, 1728074609055437912, 
-0.08410453796386719, 0.07167333364486694, 0.398443585244865, 1728074609086791587, 
-0.2531224489212036, 0.22510510683059692, 0.4718730928882359, 1728074609114008512, 
0.039195716381073, -0.11544603109359741, 0.43256270005738445, 1728074609144031877, 
-0.144040048122406, -0.037042200565338135, 0.43511470601870833, 1728074609174012890, 
0.22186487913131714, 0.17544043064117432, 0.43289015412229226, 1728074609204049619, 
-0.04499918222427368, 0.12209147214889526, 0.4035608895072476, 1728074609234080178, 
0.01839447021484375, -0.14593440294265747, 0.4248448399164922, 1728074609264117352, 
-0.23896461725234985, 0.16513264179229736, 0.4357935683606185, 1728074609295312945, 
0.23919951915740967, 0.03749966621398926, 0.4065828395677022, 1728074609327885263, 
0.012684643268585205, -0.10372215509414673, 0.46434214172187016, 1728074609354260175, 
-0.07168608903884888, 0.06833243370056152, 0.450013934380946, 1728074609383214089, 
-0.12080854177474976, 0.1675313115119934, 0.3463795043285469, 1728074609408551751, 
0.036466240882873535, -0.0029948949813842773, 0.4679260704600672, 1728074609444256896, 
-0.20362144708633423, 0.12529730796813965, 0.39111204755553736, 1728074609474305354, 
0.10130226612091064, -0.052648067474365234, 0.4056197797332147, 1728074609504302549, 
-0.10364162921905518, 0.05562460422515869, 0.4135453773927614, 1728074609535268408, 
0.09042555093765259, 0.11200273036956787, 0.4082733607318604, 1728074609567196781, 
-0.15283989906311035, -0.07380044460296631, 0.46676308936327315, 1728074609594392144, 
-0.010798215866088867, 0.002443253993988037, 0.4355808721045114, 1728074609624319014, 
-0.13189083337783813, 0.26016765832901, 0.45530472121533616, 1728074609654385618, 
0.08676499128341675, -0.02552086114883423, 0.4449273067612093, 1728074609684375073, 
-0.039980530738830566, -0.12818467617034912, 0.41019632136140494, 1728074609714401618, 
0.09851568937301636, 0.06507360935211182, 0.41722955511036536, 1728074609744432447, 
-0.2056857943534851, -0.005745410919189453, 0.38291647495830455, 1728074609776143487, 
0.1518547534942627, -0.05152785778045654, 0.3776975974060997, 1728074609807158637, 
-0.09292405843734741, 0.14747774600982666, 0.42520359447513695, 1728074609834619936, 
-0.07611227035522461, 0.06304991245269775, 0.40001480856740107, 1728074609864571770, 
-0.17412185668945312, 0.11716783046722412, 0.4264709252139864, 1728074609893550689, 
0.15812575817108154, 0.13673436641693115, 0.4392777187581103, 1728074609923553999, 
-0.08894902467727661, -0.028059005737304688, 0.4262862045288332, 1728074609954633392, 
0.04268348217010498, -0.031167328357696533, 0.4255070020519741, 1728074609984640998, 
-0.1748800277709961, 0.14798450469970703, 0.43277134712620846, 1728074610015302832, 
0.0927172303199768, -0.038795292377471924, 0.414731433081553, 1728074610047411792, 
-0.2197878360748291, 0.047173142433166504, 0.4419921836280095, 1728074610074736993, 
0.2081676721572876, -0.03577840328216553, 0.40785348300198304, 1728074610104649428, 
0.08488970994949341, 0.10708147287368774, 0.41341867180707575, 1728074610134707928, 
0.20025312900543213, 0.07425236701965332, 0.4170417827665939, 1728074610164855350, 
-0.05557453632354736, 0.0645596981048584, 0.41872257168478544, 1728074610194754331, 
-0.20657706260681152, -0.014334797859191895, 0.4304901337976677, 1728074610224750249, 
-0.0570220947265625, 0.15543276071548462, 0.4216053106894799, 1728074610255542805, 
-0.10429459810256958, 0.043448805809020996, 0.4069864977391463, 1728074610287727262, 
-0.04658085107803345, -0.04969465732574463, 0.448844520667432, 1728074610314976454, 
-0.00793677568435669, 0.14422839879989624, 0.4126962102871326, 1728074610344821101, 
-0.11392819881439209, 0.12184327840805054, 0.4314244927320265, 1728074610374862752, 
0.18424320220947266, -0.06132704019546509, 0.4274022352285898, 1728074610404873905, 
-0.09900474548339844, 0.06454253196716309, 0.42365121128899114, 1728074610434965180, 
-0.031432390213012695, 0.1620006561279297, 0.4177387694645143, 1728074610465098383, 
0.056881487369537354, -0.02511894702911377, 0.41480389931477346, 1728074610495264282, 
-0.09111320972442627, -0.006577193737030029, 0.3950818379295792, 1728074610527314894, 
0.12587296962738037, 0.0264742374420166, 0.4464320825847776, 1728074610555059768, 
-0.10141843557357788, 0.04834151268005371, 0.41547002951981843, 1728074610584985090, 
-0.12044847011566162, 0.17878657579421997, 0.42252204270272353, 1728074610615029534, 
-0.16926175355911255, 0.02209639549255371, 0.4158705343752261, 1728074610645143756, 
0.04413139820098877, -0.10247570276260376, 0.38968745899694657, 1728074610675396675, 
0.0251733660697937, 0.1768941879272461, 0.42301084170774783, 1728074610704212215, 
-0.053199052810668945, 0.0992661714553833, 0.39110279651696184, 1728074610735648723, 
0.019277989864349365, -0.16613590717315674, 0.3841308898565407, 1728074610767323577, 
-0.06350445747375488, 0.07040774822235107, 0.45487704603949436, 1728074610795184776, 
-0.07816702127456665, 0.03586399555206299, 0.43537501373623794, 1728074610825131880, 
0.0330582857131958, -0.07010668516159058, 0.4277604133603059, 1728074610855159669, 
0.07967221736907959, 0.2670249938964844, 0.4393401965145077, 1728074610884224628, 
0.026604890823364258, -0.12043589353561401, 0.43012245017333983, 1728074610914220289, 
0.03406578302383423, -0.11476659774780273, 0.4012031984177282, 1728074610945267070, 
-0.03744089603424072, 0.24754464626312256, 0.4187925901450807, 1728074610975271652, 
0.04386085271835327, 0.08845376968383789, 0.38296802449772316, 1728074611007597992, 
-0.0019057393074035645, -0.12638211250305176, 0.44132805721855267, 1728074611035373364, 
-0.09265577793121338, 0.11843425035476685, 0.4356545302133798, 1728074611065369087, 
-0.11757981777191162, 0.09637367725372314, 0.43875348818082605, 1728074611095319735, 
0.1504923701286316, -0.037200093269348145, 0.43457645917727095, 1728074611125337984, 
0.014208853244781494, 0.08174395561218262, 0.44880815010557534, 1728074611155355057, 
0.020390689373016357, -0.04899877309799194, 0.4413676418811973, 1728074611185382617, 
-0.06450575590133667, -0.024894893169403076, 0.42744869726873735, 1728074611215403012, 
0.16325324773788452, 0.08739477396011353, 0.4127351338214097, 1728074611247721383, 
0.04524827003479004, -0.018653392791748047, 0.4363942891916479, 1728074611275442925, 
0.05708223581314087, -0.10064572095870972, 0.3980816891149311, 1728074611305420307, 
-0.13192564249038696, 0.12164056301116943, 0.414215586071154, 1728074611335463989, 
0.01112431287765503, -0.03862571716308594, 0.42759806793136546, 1728074611365488564, 
-0.01105809211730957, -0.047365665435791016, 0.4092571143755156, 1728074611395530114, 
-0.044741034507751465, 0.20959216356277466, 0.43096453718419564, 1728074611425530126, 
0.03244650363922119, 0.03711754083633423, 0.4557252276227537, 1728074611454542862, 
0.008648276329040527, -0.12055397033691406, 0.4067704983691972, 1728074611486533949, 
-0.16267555952072144, -0.013266921043395996, 0.43314671420831585, 1728074611515804099, 
-0.027062833309173584, -0.12031334638595581, 0.4225225368029843, 1728074611545658321, 
0.19174915552139282, 0.1856747269630432, 0.4308095414690138, 1728074611575668093, 
0.0057988762855529785, 0.04392892122268677, 0.44469912757371616, 1728074611605698752, 
0.08178842067718506, -0.08473861217498779, 0.40883521935802675, 1728074611635680990, 
-0.1436394453048706, 0.017418265342712402, 0.4001019615566127, 1728074611665851613, 
-0.13636809587478638, 0.1289585828781128, 0.4175202249422209, 1728074611695785641, 
-0.024215877056121826, -0.024767696857452393, 0.3865240456802088, 1728074611727400290, 
0.034045279026031494, -0.04979640245437622, 0.38785907280955323, 1728074611757796824, 
-0.11814552545547485, 0.15749365091323853, 0.45664858172355755, 1728074611785807733, 
-0.08944600820541382, 0.04490131139755249, 0.445929898783351, 1728074611815825338, 
-0.2332165241241455, 0.06561994552612305, 0.4146226150399577, 1728074611845815809, 
0.048193395137786865, -0.044162750244140625, 0.4188031022377689, 1728074611875827470, 
-0.054562926292419434, -0.007300257682800293, 0.41649622582897305, 1728074611905922241, 
-0.1413457989692688, 0.08291637897491455, 0.43707004145861017, 1728074611935931769, 
0.1786484718322754, 0.06899935007095337, 0.4401699412384043, 1728074611967340106, 
0.00617450475692749, -0.07628136873245239, 0.41149537460814284, 1728074611998740098, 
0.26910310983657837, -0.032531142234802246, 0.45264026039632577, 1728074612025953851, 
-0.1434943675994873, 0.09330713748931885, 0.41942960787639116, 1728074612056041105, 
0.10256952047348022, -0.043829917907714844, 0.41070188340458824, 1728074612086043006, 
-0.055294156074523926, 0.1032642126083374, 0.37627505967325103, 1728074612116172021, 
0.0001131296157836914, 0.0692296028137207, 0.410706430795172, 1728074612146174193, 
-0.07696664333343506, -0.05159401893615723, 0.4264479708803455, 1728074612176101557, 
0.13037753105163574, 0.08613461256027222, 0.42912042855568827, 1728074612207361210, 
0.03643983602523804, 0.12414473295211792, 0.41199579086809573, 1728074612238764695, 
0.14740806818008423, -0.11672157049179077, 0.4663675258447633, 1728074612266131847, 
-0.1704186201095581, -0.06941497325897217, 0.45999876343750334, 1728074612295199515, 
0.10401588678359985, 0.009544968605041504, 0.42818530415681666, 1728074612326950544, 
0.05563563108444214, -0.10146653652191162, 0.43945459931673636, 1728074612356173994, 
-0.19867593050003052, 0.027410805225372314, 0.44042168316716584, 1728074612385210128, 
0.11801326274871826, 0.09037399291992188, 0.40469282853421945, 1728074612416208388, 
-0.09287643432617188, -0.13814955949783325, 0.38803147992744874, 1728074612447366826, 
0.045971810817718506, 0.07318031787872314, 0.3736787139584831, 1728074612479660034, 
-0.07280439138412476, 0.06229013204574585, 0.4433126833318047, 1728074612506950761, 
0.013908445835113525, -0.00937730073928833, 0.4270749784775036, 1728074612536874358, 
-0.11238324642181396, 0.12860417366027832, 0.43790912558679246, 1728074612566981252, 
-0.0176846981048584, -0.07066541910171509, 0.4268320220678804, 1728074612596882657, 
0.11088508367538452, -0.027477622032165527, 0.4240254581679802, 1728074612626997721, 
-0.18229061365127563, 0.19601762294769287, 0.4440203062159648, 1728074612656942236, 
0.029215872287750244, -0.08374881744384766, 0.4193395336304761, 1728074612688078034, 
0.2569473385810852, -0.14462924003601074, 0.38139365245158197, 1728074612719881979, 
-0.12966221570968628, 0.12421441078186035, 0.4644188410736687, 1728074612746437627, 
0.01368260383605957, 0.07457256317138672, 0.40102288663863644, 1728074612776405322, 
0.0577998161315918, -0.21371829509735107, 0.40584572556034265, 1728074612806476646, 
-0.0026804208755493164, 0.09077680110931396, 0.4128158263855822, 1728074612836440880, 
-0.12409257888793945, 0.08024239540100098, 0.4094088340909507, 1728074612866513390, 
-0.043550312519073486, -0.11492115259170532, 0.4201581857635693, 1728074612896562143, 
-0.1162261962890625, 0.10602635145187378, 0.4411409159948654, 1728074612927343920, 
-0.12859761714935303, 0.018526017665863037, 0.4099816447356406, 1728074612959498515, 
-0.047603487968444824, -0.07605242729187012, 0.46922922844735404, 1728074612986732841, 
0.04680758714675903, 0.1551584005355835, 0.4421807196091246, 1728074613016634157, 
-0.13539540767669678, -0.02172154188156128, 0.4314655865768188, 1728074613046633323, 
0.14539456367492676, -0.12621945142745972, 0.41495960520470293, 1728074613076648817, 
-0.056447744369506836, 0.0809285044670105, 0.4243610054742178, 1728074613106801262, 
0.2635689377784729, -0.06558209657669067, 0.4266512497133089, 1728074613137041666, 
-0.10153597593307495, -0.016983628273010254, 0.4246682581889909, 1728074613167435912, 
-0.005719304084777832, 0.03050941228866577, 0.4031577838261453, 1728074613198976393, 
-0.11382859945297241, -0.009865045547485352, 0.441317821103665, 1728074613226822837, 
0.08205103874206543, 0.013645768165588379, 0.4055479556668042, 1728074613256800869, 
-0.30973267555236816, 0.05541563034057617, 0.4213632990701533, 1728074613286752060, 
0.07610690593719482, -0.17575186491012573, 0.4249449976339594, 1728074613316774499, 
-0.23325645923614502, 0.11622464656829834, 0.4168617656774928, 1728074613346818296, 
0.3310012221336365, 0.12234622240066528, 0.45261480898611184, 1728074613376805091, 
-0.1524403691291809, -0.14114105701446533, 0.4157956758776927, 1728074613407437113, 
0.07408261299133301, -0.0747753381729126, 0.37562341969993307, 1728074613439865568, 
-0.14564478397369385, 0.17678385972976685, 0.48824219278959874, 1728074613466969577, 
0.3544151782989502, -0.028353512287139893, 0.4445397699299778, 1728074613496914760, 
-0.03132760524749756, -0.11132532358169556, 0.4058032670511831, 1728074613526962560, 
-0.02569526433944702, -0.1233779788017273, 0.41143761539449913, 1728074613556977619, 
-0.12123405933380127, 0.007540464401245117, 0.4059491518033265, 1728074613587029026, 
-0.030864298343658447, 0.11024743318557739, 0.38267025684125744, 1728074613617031470, 
-0.1859753131866455, -0.02580028772354126, 0.38318377853682184, 1728074613647839316, 
0.06813973188400269, -0.06363862752914429, 0.38638094220695085, 1728074613679605389, 
-0.04895859956741333, 0.09410512447357178, 0.46678840470579086, 1728074613707141820, 
0.4700312614440918, 0.07148891687393188, 0.476190162470354, 1728074613737066474, 
-0.21521145105361938, -0.046475768089294434, 0.45042935924049776, 1728074613767115526, 
0.15239185094833374, -0.04326653480529785, 0.42981456869785356, 1728074613797085385, 
-0.19408971071243286, 0.012762904167175293, 0.4406581827630514, 1728074613827126009, 
0.14428985118865967, -0.046695172786712646, 0.42470308128678735, 1728074613857153837, 
0.012576460838317871, 0.008053600788116455, 0.3968026999106035, 1728074613887694926, 
-0.008884668350219727, 0.009579837322235107, 0.3705572858438354, 1728074613919983613, 
-0.0019672513008117676, -0.08413445949554443, 0.43687647709293176, 1728074613947347141, 
-0.1031075119972229, 0.09618079662322998, 0.4128046020363323, 1728074613977290784, 
-0.058612167835235596, 0.10767656564712524, 0.41631955006185095, 1728074614007252966, 
0.010936737060546875, -0.029168665409088135, 0.4131864035104737, 1728074614037291287, 
-0.3057065010070801, 0.09556138515472412, 0.4317581313796995, 1728074614067322875, 
0.36312371492385864, -0.10199284553527832, 0.4547916699853506, 1728074614097553025, 
-0.03231841325759888, -0.026448190212249756, 0.4641501756725012, 1728074614127402451, 
0.041488826274871826, 0.03081226348876953, 0.40967167946053906, 1728074614160027563, 
-0.1997475028038025, -0.04292017221450806, 0.4473273835197779, 1728074614197376263, 
0.25249993801116943, -0.08764976263046265, 0.4312202717871671, 1728074614227396104, 
-0.044537365436553955, 0.07525432109832764, 0.4190982029198063, 1728074614257467950, 
-0.0674024224281311, -0.06691908836364746, 0.386782387182103, 1728074614287863458, 
-0.002678513526916504, -0.09124922752380371, 0.3801325009652074, 1728074614319690179, 
0.014780044555664062, 0.13481491804122925, 0.44535491520283527, 1728074614347548418, 
0.036705076694488525, -0.1698077917098999, 0.40786957149388847, 1728074614377496294, 
-0.20597147941589355, -0.06696832180023193, 0.41357443956297674, 1728074614407483978, 
-0.19326519966125488, 0.27226293087005615, 0.43896721183224646, 1728074614437518610, 
0.03710252046585083, -0.12713873386383057, 0.4529390903160283, 1728074614467531300, 
-0.01564311981201172, -0.13131994009017944, 0.4346631442410583, 1728074614497586985, 
0.02275949716567993, 0.09217655658721924, 0.42603574008717576, 1728074614527653141, 
-0.12164723873138428, -0.021656036376953125, 0.3857485926322816, 1728074614559621275, 
0.3246123790740967, -0.11366164684295654, 0.44306995540099453, 1728074614589643238, 
-0.1000446081161499, 0.1630280613899231, 0.4480484914541584, 1728074614617690422, 
0.11713975667953491, -0.12065273523330688, 0.3930290709573696, 1728074614647713394, 
-0.028086841106414795, -0.05976742506027222, 0.407573702179051, 1728074614677722804, 
-0.035087764263153076, 0.06611871719360352, 0.4196920717873623, 1728074614707755147, 
-0.042610883712768555, -0.10839307308197021, 0.38545572844744924, 1728074614738075962, 
-0.04285311698913574, 0.04139071702957153, 0.3901307812736721, 1728074614767871266, 
-0.1537662148475647, 0.135731041431427, 0.38742978245054094, 1728074614800019360, 
-0.16195082664489746, -0.020349860191345215, 0.45815906917021837, 1728074614827875672, 
-0.0018383264541625977, 0.07429265975952148, 0.4527555876116189, 1728074614857877607, 
0.02898472547531128, 0.08804380893707275, 0.469354455037402, 1728074614887814624, 
-0.14107650518417358, -0.06992626190185547, 0.4505861578919458, 1728074614917865906, 
0.156627357006073, -0.11920702457427979, 0.46224782913244133, 1728074614947862036, 
0.025004088878631592, 0.012346267700195312, 0.42662865094665825, 1728074614977918591, 
-0.04071265459060669, -0.039320290088653564, 0.4169311694949303, 1728074615008029383, 
-0.09199440479278564, 0.1272711157798767, 0.3935068227958213, 1728074615039874643, 
-0.23277783393859863, -0.037145793437957764, 0.4107164739611495, 1728074615070705415, 
0.14764028787612915, -0.1682029366493225, 0.4397947046864429, 1728074615098044424, 
-0.0863105058670044, 0.16097134351730347, 0.39902253878428723, 1728074615128003729, 
-0.3931252956390381, 0.04670751094818115, 0.372255260421767, 1728074615150751221, 
0.02287149429321289, -0.10268890857696533, 0.4533114721783184, 1728074615188053360, 
0.044431328773498535, 0.004515409469604492, 0.4251327704628758, 1728074615218125575, 
-0.21833276748657227, 0.07789820432662964, 0.4525978554848146, 1728074615247197556, 
-0.1315404176712036, -0.03431469202041626, 0.4044911018719984, 1728074615279659911, 
0.15655630826950073, -0.056791722774505615, 0.43125769886172977, 1728074615311454519, 
-0.046376585960388184, -0.024771928787231445, 0.5014114080513619, 1728074615338257293, 
-0.05227571725845337, 0.050951242446899414, 0.4079895502872677, 1728074615368146284, 
-0.2261955738067627, 0.030451595783233643, 0.40401299781273176, 1728074615398172617, 
0.08598679304122925, -0.06061893701553345, 0.41839989538323497, 1728074615427237568, 
0.12135946750640869, -0.07103109359741211, 0.3793159495820446, 1728074615458250359, 
-0.18296587467193604, 0.02985590696334839, 0.40011703204945204, 1728074615488271662, 
-0.2584441900253296, -0.01553499698638916, 0.3916508731132046, 1728074615519769725, 
-0.11368852853775024, -0.014742553234100342, 0.3916629682631528, 1728074615551565328, 
0.1480920910835266, 0.24653077125549316, 0.474622898950324, 1728074615578489324, 
0.060697197914123535, -0.08172178268432617, 0.4398714142344327, 1728074615608521447, 
-0.029928147792816162, 0.020933151245117188, 0.4347272897231725, 1728074615638407604, 
-0.05296981334686279, 0.08858394622802734, 0.4393129007700475, 1728074615668391011, 
0.1367778182029724, -0.14480459690093994, 0.41882017570064645, 1728074615698433792, 
-0.1152459979057312, -0.06716585159301758, 0.42333239717741655, 1728074615728431647, 
0.029047846794128418, 0.13042736053466797, 0.40961354238908515, 1728074615760450609, 
0.00482553243637085, -0.11463826894760132, 0.41172858367381393, 1728074615791682102, 
0.08954882621765137, -0.08831518888473511, 0.44672653445225413, 1728074615818549990, 
-0.13641774654388428, 0.08788710832595825, 0.40719284023506025, 1728074615848483663, 
0.05759662389755249, -0.03884243965148926, 0.3985511354649386, 1728074615878505613, 
-0.12129813432693481, -0.07048505544662476, 0.4075752006933643, 1728074615908503259, 
-0.18504083156585693, 0.17538076639175415, 0.4168819086904073, 1728074615938557849, 
-0.15959161520004272, -0.029489338397979736, 0.4156595587016814, 1728074615968571764, 
-0.2960882782936096, -0.0320432186126709, 0.42434441994164335, 1728074615999751695, 
0.20766401290893555, 0.09865021705627441, 0.43302021680738134, 1728074616031846689, 
0.04365462064743042, -0.10213953256607056, 0.49089923483425163, 1728074616058660997, 
-0.02765822410583496, -0.057159245014190674, 0.43391732022697893, 1728074616088639147, 
-0.22962260246276855, 0.11714190244674683, 0.3776378649895586, 1728074616111659362, 
-0.034254252910614014, -0.055186450481414795, 0.485890631542945, 1728074616138757561, 
-0.0267297625541687, -0.11695307493209839, 0.4221315665528539, 1728074616168691280, 
-0.005723476409912109, 0.14352327585220337, 0.41180451194768736, 1728074616198703918, 
-0.13233709335327148, -0.14184921979904175, 0.4070797968778387, 1728074616228724897, 
0.03944188356399536, 0.007491767406463623, 0.39969414482455706, 1728074616258793533, 
0.027819812297821045, 0.1461249589920044, 0.409388569917142, 1728074616288802278, 
-0.01589488983154297, 0.016544699668884277, 0.38958465880348914, 1728074616319896646, 
-0.21709275245666504, -0.1867966651916504, 0.40926190597046247, 1728074616351617717, 
0.09026414155960083, 0.162284255027771, 0.4939064910910806, 1728074616378882339, 
0.03877741098403931, 0.00324857234954834, 0.4208844324786179, 1728074616408954014, 
0.019853055477142334, -0.028529345989227295, 0.42425912745108096, 1728074616439050090, 
-0.06834423542022705, 0.11873006820678711, 0.45739699442664833, 1728074616468900152, 
-0.06496942043304443, -0.12167221307754517, 0.43502379453914286, 1728074616498924251, 
0.0229223370552063, 0.0003229975700378418, 0.40077069014557676, 1728074616528979192, 
-0.19332563877105713, 0.10489368438720703, 0.39540037714331205, 1728074616559861593, 
-0.174616277217865, -0.06614530086517334, 0.3804885139553537, 1728074616592317527, 
0.055622875690460205, -0.02502495050430298, 0.4695319342099255, 1728074616619065357, 
0.08408057689666748, 0.09023404121398926, 0.40895907991632946, 1728074616649052604, 
0.018347740173339844, 0.026632249355316162, 0.4055124042561909, 1728074616679058323, 
-0.18084055185317993, 0.04046952724456787, 0.43086358737698177, 1728074616709088864, 
-0.1266605257987976, 0.0661095380783081, 0.44817453842941796, 1728074616739105182, 
-0.1559932827949524, -0.027986347675323486, 0.43526818243901616, 1728074616769120398, 
-0.06609237194061279, 0.007742941379547119, 0.42309831296924866, 1728074616799842563, 
-0.27666282653808594, 0.0432165265083313, 0.40373925119634624, 1728074616832034244, 
0.3767361640930176, -0.19096195697784424, 0.4822580782065167, 1728074616858212639, 
-0.08740073442459106, 0.10114145278930664, 0.39168693834758467, 1728074616889194561, 
-0.01520627737045288, 0.10570633411407471, 0.4468681936664774, 1728074616918209602, 
-0.21511071920394897, -0.08759832382202148, 0.4065636666573969, 1728074616949419084, 
0.14441323280334473, -0.02885138988494873, 0.4428371959567269, 1728074616978218377, 
-0.10929244756698608, 0.06152981519699097, 0.4015737228120553, 1728074617009298689, 
-0.03778785467147827, -0.06927567720413208, 0.41051590749061384, 1728074617039235323, 
-0.1576787233352661, 0.03204149007797241, 0.38410473034824066, 1728074617071688957, 
-0.1345006823539734, 0.14112401008605957, 0.4729610732943825, 1728074617099371546, 
0.1612594723701477, -0.057755231857299805, 0.4297650002208138, 1728074617129357008, 
0.02604198455810547, 0.04648888111114502, 0.4172384478130854, 1728074617159373340, 
-0.19475197792053223, 0.008083581924438477, 0.43172070666347456, 1728074617189418667, 
0.18595290184020996, -0.008880615234375, 0.42269323620681654, 1728074617219461869, 
-0.048884689807891846, -0.0013254880905151367, 0.421059027291597, 1728074617249712575, 
-0.12383735179901123, -0.1050305962562561, 0.4446414170939103, 1728074617279208833, 
-0.09552311897277832, 0.004166305065155029, 0.3998323165005157, 1728074617311716906, 
-0.02031320333480835, 0.11618781089782715, 0.4550748139325591, 1728074617339518800, 
-0.2456296682357788, -0.09552210569381714, 0.4151018132294984, 1728074617369562002, 
0.08008497953414917, -0.010204911231994629, 0.39024336629040457, 1728074617399513091, 
-0.1785750389099121, 0.1462419629096985, 0.3919501177161805, 1728074617429549928, 
0.008464992046356201, 0.04750490188598633, 0.40988175428752566, 1728074617459534308, 
-0.2308327555656433, -0.1667366623878479, 0.41223208094328617, 1728074617489862146, 
0.01098787784576416, 0.07254105806350708, 0.4262682891831458, 1728074617520006177, 
-0.17124569416046143, 0.1479719877243042, 0.39880982920150077, 1728074617552129627, 
0.27086347341537476, -0.11729758977890015, 0.4447815281338717, 1728074617581604520, 
-0.28413963317871094, 0.19241547584533691, 0.4650578685492826, 1728074617619669642, 
-0.2181958556175232, -0.07660806179046631, 0.4413644203315476, 1728074617649722103, 
0.10190248489379883, -0.17476868629455566, 0.4430294718411379, 1728074617680190739, 
-0.16322243213653564, 0.1481572389602661, 0.4056540121815969, 1728074617711720955, 
0.06239473819732666, -0.07901513576507568, 0.3989131555803302, 1728074617741862962, 
-0.15587878227233887, -0.0915878415107727, 0.434959595553183, 1728074617769849908, 
-0.09474045038223267, 0.1649312973022461, 0.4141489248760037, 1728074617799795419, 
0.0829285979270935, -0.009110212326049805, 0.36865512259783917, 1728074617821899738, 
-0.0012209415435791016, -0.08371883630752563, 0.42978738586837, 1728074617849814193, 
-0.19264471530914307, 0.18349528312683105, 0.42135164237910316, 1728074617879853885, 
-0.17902201414108276, 0.012490451335906982, 0.4305929524141655, 1728074617909867014, 
0.019151628017425537, -0.15385806560516357, 0.43525827680117807, 1728074617939912028, 
0.05006682872772217, 0.136133074760437, 0.43450187343232166, 1728074617969899834, 
0.08894646167755127, -0.05491948127746582, 0.4410356513776282, 1728074618000191940, 
