acc_x, acc_y, angular_z, stamp, 
-0.090174827746806, 0.023814727118881166, -2.7129066913741733e-05, 7677000000, 
-0.09235114863477116, 0.0011908515779251636, -0.00029630673912865155, 7683000000, 
-0.09049595043017636, -0.03517322472084098, 0.0001312605814827898, 7688000000, 
-0.06134075458209734, 0.005308451784344957, -0.00021224055945370077, 7693000000, 
-0.0929597165534664, -0.01111599022344786, 0.00010348762599835653, 7698000000, 
-0.07063567542830128, 0.00965138335251959, 2.6068681712430262e-05, 7703000000, 
-0.11127856009088564, -0.023130524873207988, 2.2591091650981334e-05, 7708000000, 
-0.12739077722477993, -0.0036472958655990114, 0.00018843199686968752, 7713000000, 
-0.052296595751046074, -0.04333061774789843, 4.237541030513948e-05, 7718000000, 
-0.0836819414956125, -0.017246831533082353, -1.2322039587108226e-05, 7723000000, 
-0.06699935519829259, -0.012585623964584151, 0.00037311452746652214, 7728000000, 
-0.05163081437100395, 0.005003944832029839, -0.0002859978789562473, 7733000000, 
-0.05975729440442333, -0.0021339080036051894, 0.00010528917531023627, 7738000000, 
-0.040790162539462035, 0.011816252380129729, 0.0002369951112433213, 7743000000, 
-0.08411606728301856, -0.01882018918461337, -0.00012129917473176335, 7748000000, 
-0.07427659872664352, -0.002985633803762165, -0.00021929970816717, 7753000000, 
-0.078565014770271, 0.025737062399111076, -7.728583555589607e-05, 7758000000, 
-0.02264206267432723, -0.003067169011213091, -0.0001957997869983139, 7763000000, 
-0.03641932355208109, 0.0021957686813164146, 0.00029665113798744367, 7768000000, 
-0.07228020812998588, -0.017424118189281173, -0.00030221548390981835, 7773000000, 
-0.01902734745787118, -0.0066400466029942744, -0.00021988513455152337, 7778000000, 
-0.05330142094873282, 0.015452139463635082, 0.00020968780570076588, 7783000000, 
5.175073245520921, 0.009950761768889715, 0.0025900174401310657, 7788000000, 
0.049578208647835874, 0.0021668315184487736, 0.012385260977412235, 7793000000, 
-0.08818215395064873, 0.02643693489994659, 0.026175305345506886, 7798000000, 
-0.05587793278430633, 0.025499757434001485, 0.03900353455381589, 7803000000, 
-0.0709474908752988, -0.03057051851393977, 0.060327986608609684, 7808000000, 
-0.03413362214827752, 0.014743140818747811, 0.07855439283155659, 7813000000, 
-0.036522639664511795, 0.010589486965692103, 0.09582562946950823, 7818000000, 
4.1991862611568855, -0.015976065008025103, 0.1144691117858968, 7823000000, 
-0.07099308481223049, 0.05680582950454244, 0.160135186680774, 7828000000, 
-0.08651806794063537, 0.04958681487905997, 0.20515894110335542, 7833000000, 
-0.04572434227672274, 0.03568502957738103, 0.24259589727346378, 7838000000, 
-0.04209019598157696, -0.006497096300696221, 0.2991439108800403, 7843000000, 
-0.0423098998519766, -0.003991335613466582, 0.34204621439928584, 7848000000, 
0.0015915875260415144, -0.0008626886404411432, 0.3789359714358895, 7853000000, 
3.401215624557378, 0.0011270567633414209, 0.4219652615095754, 7858000000, 
-0.08294624950939322, -0.0015191098780666205, 0.470033782842475, 7863000000, 
-0.05297776252230052, 0.04667335989109801, 0.517261033651143, 7868000000, 
-0.04772332372612258, 0.02636406510850475, 0.5603205622428001, 7873000000, 
0.0084918696898162, 0.04917687773257647, 0.5902619406756805, 7878000000, 
0.010609788293791951, 0.03579949627869689, 0.6255081605110302, 7883000000, 
-0.010888469915265079, 0.05168602824604457, 0.64438013078498, 7888000000, 
4.370600543538772, 0.0452828068673306, 0.6665330996057552, 7893000000, 
-0.07103769244753812, 0.03243880491596576, 0.7014932701369961, 7898000000, 
-0.035552914713881084, 0.026774518705986145, 0.7298295546591039, 7903000000, 
-0.028506380588226268, 0.05349411686469235, 0.7558884123984673, 7908000000, 
-0.0027236112952019075, 0.06191856625384815, 0.777866411645221, 7913000000, 
0.003947757887832075, 0.057652331547144685, 0.7941548134684574, 7918000000, 
2.794605155720213, 0.06500870194140096, 0.8082712835340496, 7923000000, 
0.6581086108720344, 0.08783058337170123, 0.8350491957553255, 7928000000, 
-0.08022597615021079, 0.07137131395554827, 0.8658063170313396, 7933000000, 
-0.007809121481071367, 0.07579946055998191, 0.9129912663959117, 7940000000, 
-0.026466631886746632, 0.10809269342210974, 0.9451707790439111, 7945000000, 
0.037762981863039384, 0.08336357749389939, 0.9741663626665004, 7950000000, 
-0.007520647969933198, 0.10509048771473622, 0.998706833498864, 7955000000, 
1.3168798450047752, 0.07267291705711194, 1.0170428818677444, 7960000000, 
0.006508840963675418, 0.09774376275523071, 1.0461414203122112, 7966000000, 
-0.010158537462201899, 0.09726916863088884, 1.058875616676699, 7971000000, 
0.022282244727506277, 0.11726036678103906, 1.0667918896005977, 7976000000, 
-0.00024703293277467814, 0.08954137686902007, 1.0774420244365404, 7981000000, 
0.015221112737654125, 0.11682232057548904, 1.0784131889296513, 7986000000, 
0.014100364735767562, 0.10508226039872118, 1.0735448225625637, 7992000000, 
0.03083129278349354, 0.10280984900253477, 1.062681149043457, 7997000000, 
0.0691208428333083, 0.13888124970738602, 1.0491548107418103, 8002000000, 
0.015624732477803473, 0.12824341908845968, 1.0399966126748692, 8007000000, 
0.05056257489308623, 0.09546288136912916, 1.0211782944560237, 8012000000, 
0.007474808445773667, 0.0905652157959969, 1.0020235182021566, 8017000000, 
0.06474162098299865, 0.09842851857561788, 0.9897747625982057, 8022000000, 
0.03914857297416675, 0.13174492897807272, 0.9735034389895775, 8027000000, 
0.06118300702351141, 0.10053832705136954, 0.9637025916258285, 8032000000, 
0.0472127359451201, 0.08634301201601954, 0.9554867232173686, 8038000000, 
0.041625252474854185, 0.05377700935867125, 0.9523349230502612, 8043000000, 
0.06305077053438071, 0.10534043255647955, 0.9523659562627895, 8048000000, 
0.06226426975410389, 0.10866203310028968, 0.9546959938135756, 8053000000, 
0.023736070635500574, 0.10538860532364461, 0.9610969806127195, 8058000000, 
0.05216800539983178, 0.1005615257854582, 0.9684398795642698, 8063000000, 
0.029019856675620317, 0.07928439055261995, 0.9774718229182794, 8068000000, 
0.027705229119304873, 0.10414684652711054, 0.9875835238754491, 8073000000, 
0.04126912169741907, 0.08518539619953594, 0.9967125449055441, 8078000000, 
0.07993344230946528, 0.10559523652735707, 1.0059127457090173, 8083000000, 
0.06395595023656915, 0.08894436525823318, 1.0138697163042685, 8088000000, 
0.06626863218419064, 0.0694697165160501, 1.018490388694669, 8093000000, 
0.052447338115297115, 0.11035604396788998, 1.0236142213666026, 8098000000, 
0.08717256862156222, 0.07096009412149892, 1.0262845519429447, 8103000000, 
0.05497025096013029, 0.0920807445374088, 1.0271586547767966, 8108000000, 
0.06547473524509158, 0.11597107709991546, 1.0253911800405882, 8113000000, 
0.049414548774696435, 0.06994016471804611, 1.022695224440533, 8118000000, 
0.08885120484234871, 0.06195241963800448, 1.0186619310269425, 8123000000, 
0.05635098015819964, 0.05231578510029846, 1.0134449179373957, 8128000000, 
0.08557414510841686, 0.0527158327370815, 1.0078454665252692, 8133000000, 
0.0845988887325329, 0.06900609797005823, 1.0023984623860134, 8138000000, 
0.10584669802912242, 0.08329155575048351, 0.9969987938101449, 8143000000, 
0.09504971908622456, 0.09600849668551614, 0.9921147070898821, 8148000000, 
0.08295871645557042, 0.04192549480304507, 0.9886542204459993, 8153000000, 
0.09464973733655332, 0.017598077681549848, 0.9856181938941899, 8158000000, 
0.10277351693081878, 0.04948878136472028, 0.9835832335709002, 8163000000, 
0.08291727085218752, 0.04595260369233321, 0.9823316645106479, 8168000000, 
0.1139400485599598, 0.06206365857795324, 0.9828628403341705, 8173000000, 
0.08384168827557104, 0.0777682646775275, 0.9837364928830166, 8178000000, 
0.10647547263137333, 0.11375457581781342, 0.9859877390599203, 8183000000, 
0.15297321313440276, 0.11553904393416284, 0.9893465105157073, 8188000000, 
0.07595693877046003, 0.038016333839200195, 0.9931125875219516, 8193000000, 
0.12388056786640296, 0.05754031300729394, 0.9963528599886341, 8198000000, 
0.12253793184370178, 0.04684900291810842, 0.999799426954578, 8203000000, 
0.08411602176150193, 0.05702797707879945, 1.0041840961734085, 8208000000, 
0.14989530754359592, 0.047964829452963174, 1.007789117146942, 8213000000, 
0.13494134588205392, 0.08074464644925025, 1.0104439233634914, 8218000000, 
0.12975613665334967, 0.068788437964597, 1.0126591434112768, 8223000000, 
0.14438146279299613, 0.123177611549297, 1.0135539617176892, 8228000000, 
0.13414448166988738, 0.17789630777401844, 1.0138256310305227, 8233000000, 
0.15293009757760395, 0.09390108994329326, 1.0131550718203708, 8238000000, 
0.13112445721427585, 0.10501284469455449, 1.012367629586063, 8243000000, 
0.1335411847937823, 0.07824983119113814, 1.0099570448426274, 8248000000, 
0.144886091500605, 0.12721509470393125, 1.0068216164933832, 8253000000, 
0.1675981513610027, 0.11317390737975239, 1.0037920984327968, 8258000000, 
0.12588926526835303, 0.13471614531391948, 1.0003544876862753, 8263000000, 
0.17011852330305122, 0.1176869752461659, 0.9983212948532655, 8268000000, 
0.15319361347660695, 0.13656698680605708, 0.9959279739342557, 8273000000, 
0.15177644766998707, 0.10751327367801028, 0.9938132795034321, 8278000000, 
0.15283946535468512, 0.10067737035004395, 0.9920643696082424, 8283000000, 
0.15217327072837777, 0.09177502151989644, 0.9910384702670891, 8288000000, 
0.14353728030540835, 0.05112971084848795, 0.9908023063291459, 8293000000, 
0.12170653696117217, 0.11496086885325389, 0.9910272325401734, 8298000000, 
0.14429234416627684, 0.10824399535029217, 0.9919031914930106, 8303000000, 
0.1329274584347816, 0.10844779842141654, 0.9928795150415047, 8308000000, 
0.15179335941980734, 0.08304759091428243, 0.9945785631754946, 8313000000, 
0.14047586098658835, 0.056361174763408906, 0.9958581418022211, 8318000000, 
0.13361062200738247, 0.0656086365358918, 0.9976625472667405, 8323000000, 
0.1562621669086082, 0.07421743533918572, 0.9993507053335369, 8328000000, 
0.1498633611553157, 0.07144256454083645, 1.0005980327908652, 8334000000, 
0.14074008547783545, 0.06350432507711098, 1.0024674896196002, 8340000000, 
0.1303243749637912, 0.09950581355085988, 1.0036626738792758, 8346000000, 
0.13686113164756772, 0.06261496344009136, 1.0039581742629538, 8350000000, 
0.15114188013702884, 0.06734471889405284, 1.0044123478917248, 8355000000, 
0.1541140704063867, 0.06652522121976642, 1.0040763955486693, 8360000000, 
0.14514977915809701, 0.05551857168404875, 1.0032088653606728, 8365000000, 
0.115575035374957, 0.10246721858862509, 1.002675409645743, 8370000000, 
0.16663813659213852, 0.049088904870084625, 1.001746476473276, 8375000000, 
0.12917746980429948, 0.0492436442313295, 1.0009617207330712, 8380000000, 
0.12461206044640298, 0.06775643839333469, 0.9999525961932428, 8385000000, 
0.13779983912354415, 0.05811107302822068, 0.9988681207042289, 8390000000, 
0.14735604496451837, 0.06624954316454972, 0.9982386263863612, 8396000000, 
0.12897537499181666, 0.018924586619193343, 0.9969403027605699, 8403000000, 
0.15132757588865897, 0.08498982884963709, 0.9962043424476075, 8408000000, 
0.14572099531337374, 0.06827978081942843, 0.9963114912654051, 8413000000, 
0.15125036926598018, 0.026620097789485632, 0.996125796493821, 8418000000, 
0.11933946436956427, 0.10404931781821951, 0.9966194566976436, 8423000000, 
0.12613574534101152, 0.06949958298216306, 0.9969734209713992, 8429000000, 
0.102902876427836, 0.05474900545301236, 0.9971254162619531, 8435000000, 
0.1523676561984848, 0.05045247888135978, 0.9980351612953962, 8440000000, 
0.09566019305620252, 0.0669182968165428, 0.998591425773048, 8445000000, 
0.12494623285995338, 0.03534314759407673, 0.9996383730865431, 8450000000, 
0.12872005587445293, 0.04398818410349617, 0.9998562784541367, 8455000000, 
0.13719313274710654, 0.01922939403174836, 1.000131519735109, 8460000000, 
0.13362747207747847, 0.04545970682367589, 1.0007587618664056, 8465000000, 
0.17272311167934307, 0.027851998465433184, 1.000807416712711, 8470000000, 
0.11774186871853043, 0.04088963925647584, 1.001080083962503, 8475000000, 
0.13059535779438655, 0.06471116423725423, 1.0011955295740727, 8480000000, 
0.13505518695886423, 0.008564874573795886, 1.0010168013951841, 8485000000, 
0.3403445599321893, 0.03748473012096237, 1.0008143848399063, 8490000000, 
0.5182231989093805, 0.16963102580323366, 1.003774648650646, 8495000000, 
0.3236230841041552, 0.014386676034234672, 1.007762374917201, 8500000000, 
0.3879860369689176, -0.02910538781768228, 1.0177818318287333, 8505000000, 
0.29974612526624245, 0.027397548608495286, 1.0292073206345123, 8510000000, 
0.24524072019118817, 0.04548228433432873, 1.0412851035754938, 8515000000, 
0.23670614798022588, 0.017795060112167284, 1.0546770164159627, 8520000000, 
0.1276372555307386, 0.05561984015023005, 1.0651104354910972, 8525000000, 
0.06671896643520708, 0.05876842097539333, 1.0794673532972154, 8530000000, 
0.07216914839100255, 0.03647339028319681, 1.0885658014482282, 8535000000, 
0.041530010907682394, 0.05491594343403306, 1.097102018517019, 8540000000, 
0.000860736935323605, 0.056955244335269065, 1.1041416114099956, 8545000000, 
-0.029509886816510504, 0.06637221482782403, 1.107924444107772, 8550000000, 
0.017241226871849973, 0.02137895589516864, 1.108787370970861, 8555000000, 
-0.036788446964609825, 0.05952735816997517, 1.1067883253837394, 8560000000, 
-0.008679229032875768, 0.05304729797877014, 1.1030955166235308, 8565000000, 
0.04798192263070858, 0.0397997729487206, 1.0977922299162095, 8570000000, 
0.0030832857019360838, 0.06473666717714659, 1.0922748439994188, 8575000000, 
0.30483971494675566, 0.0841449351538846, 1.0855607480028686, 8580000000, 
-0.07245342862653957, -0.10389475499435658, 1.074999997902239, 8585000000, 
-0.20712643033955036, 0.13699036989139426, 1.0624992622233993, 8590000000, 
-0.08018569254603014, 0.13062169559348444, 1.0474546227572215, 8595000000, 
0.025823036613262136, 0.06921021861044363, 1.0306779786977012, 8600000000, 
0.10112333471127705, 0.0520402221430708, 1.0164211926417202, 8605000000, 
0.10953727247365624, 0.04049384913191275, 0.9993400522305347, 8611000000, 
0.16922895006539473, 0.048206185395684935, 0.9779339395385278, 8616000000, 
0.107938545004307, 0.08488285752617926, 0.9638624022592088, 8622000000, 
0.16354134350118965, 0.052890113464725046, 0.954927397873683, 8627000000, 
0.12235637616723745, 0.06740692889507388, 0.9513051568317525, 8632000000, 
0.10288651820783386, 0.07142329190893888, 0.9491018016312641, 8637000000, 
0.1468263133713628, 0.030837932647374888, 0.9511315275887975, 8642000000, 
0.11247096471313714, 0.055219747579857474, 0.956209454057543, 8647000000, 
0.1469183066526146, 0.07332508218984012, 0.9636619080343705, 8652000000, 
0.13393249902616608, 0.07266121855098424, 0.9730516525034285, 8657000000, 
0.11033256940428084, 0.05836708473758862, 0.9828985523298207, 8662000000, 
0.13094052214364943, 0.06452917041444951, 0.9912283292562993, 8667000000, 
0.10920506419660098, 0.11576392210328114, 1.0011986385940788, 8672000000, 
0.11662244896153677, 0.10315736048033328, 1.0115700528507054, 8677000000, 
0.1363676260735853, 0.10807693071272545, 1.0172605156324375, 8682000000, 
0.09155680821001569, 0.1029062895065042, 1.022972533264991, 8687000000, 
0.08427985621612724, 0.14025019836584424, 1.0268140685840466, 8692000000, 
0.10849179723772827, 0.07708406433075997, 1.0283939640927653, 8697000000, 
0.09343768935405827, 0.09315325253816799, 1.027221776627419, 8702000000, 
0.09860676656561253, 0.10769118290252061, 1.0249892882759029, 8707000000, 
0.09422217797029772, 0.09549739322037737, 1.021205870912679, 8712000000, 
0.09869624607850232, 0.14510282368703664, 1.017015898525403, 8717000000, 
0.06141553600240638, 0.09762232037644031, 1.0103959704207501, 8722000000, 
0.10413261229674309, 0.13380923539367798, 1.0048785746473399, 8727000000, 
0.06862936906424535, 0.1614068817657004, 0.9990550480381175, 8732000000, 
0.05952086910201732, 0.15341621349885157, 0.9942884498356785, 8737000000, 
0.04051046716082647, 0.20554969080337848, 0.990371162492285, 8742000000, 
0.14274334188251733, 0.15262205850089414, 0.9872733201043965, 8747000000, 
0.16208331340498813, 0.08433371328716864, 0.9854522358000137, 8752000000, 
0.16759885030773192, 0.12144075954284349, 0.9853754736117206, 8757000000, 
0.11863494280991126, 0.16858538225176298, 0.9860459937498451, 8762000000, 
0.0748220669407498, 0.2069111807761894, 0.9882014991944181, 8767000000, 
0.08746808965577657, 0.16960451356008238, 0.9904408036304228, 8772000000, 
0.09368442064675488, 0.1992895670399663, 0.9933709564544467, 8778000000, 
0.059346587533234525, 0.14040389853872584, 0.9975306849697251, 8784000000, 
0.09635028946198917, 0.15359847788636852, 1.0003864313463515, 8789000000, 
0.10542110283712275, 0.12325547278771595, 1.002704634623465, 8794000000, 
0.09675962014670256, 0.10503052123146606, 1.0039951465250947, 8799000000, 
0.08641104810954443, 0.1338066619919379, 1.0069574005007416, 8806000000, 
0.09892512528391387, 0.12094223441739421, 1.006766081927769, 8811000000, 
0.11205087890496569, 0.052552997247342095, 1.0072435203499053, 8816000000, 
0.13274491553428325, 0.13787172109607215, 1.006683540263648, 8821000000, 
0.13900302032253073, 0.06833427185110116, 1.0061118716414539, 8826000000, 
0.1292052997895039, 0.05019173434397433, 1.0047513777042225, 8831000000, 
0.15373570734562408, 0.07524082663113539, 1.0030549181916926, 8836000000, 
0.14132314969355644, 0.07945179347029264, 1.001458085390171, 8841000000, 
0.11232204257749537, 0.08554712254896538, 0.9998112444124136, 8846000000, 
0.10456474490818438, 0.04990400524437741, 0.997852265849189, 8851000000, 
0.14676215270327664, 0.046384772900815434, 0.996506687851138, 8856000000, 
0.08828801396522695, 0.06270291861389245, 0.9956719910819074, 8861000000, 
0.14238398227012247, 0.07420640516503448, 0.9946065010129738, 8866000000, 
0.11046679983868851, 0.07077485256165612, 0.9939255051774146, 8871000000, 
0.12305455026084962, 0.08226153446875151, 0.9940486297516256, 8876000000, 
0.0956935825945984, 0.10091324957878912, 0.9936031927013115, 8881000000, 
0.11678103453141535, 0.10033124600325506, 0.9944884771079194, 8886000000, 
0.1330555014721115, 0.06844582628323305, 0.9950150915484737, 8891000000, 
0.08685462485519396, 0.0495781510250491, 0.9960802727803834, 8896000000, 
0.09493277688459457, 0.04245204966862294, 0.9974379913008758, 8901000000, 
0.11974967488225587, 0.03334535804322788, 0.9983670013806608, 8906000000, 
0.09344140168020401, 0.03201179414478992, 0.9993124407389109, 8911000000, 
0.12201855518301966, 0.050212327062310505, 1.000142113213042, 8916000000, 
0.14125221748735403, 0.0296302503477858, 1.0011584816619905, 8921000000, 
0.11667335558996836, 0.017846473203149762, 1.0014950063421941, 8927000000, 
0.1360387013553654, 0.025447451284828667, 1.0016215582621666, 8932000000, 
0.10516525672971658, 0.010390642898052636, 1.0019044941469404, 8937000000, 
0.11700697422320926, -0.005232093443391084, 1.0022496349937149, 8942000000, 
0.09700979461251759, 0.10621017857842494, 1.0014239655338564, 8947000000, 
0.03850079376694548, 0.1023064046981297, 1.0016182459750878, 8952000000, 
0.05401880045359086, 0.06168381564097243, 0.999265238853092, 8957000000, 
0.06114018402034267, 0.06899354299370569, 0.998754010695606, 8962000000, 
0.058262638357946886, 0.10099240118642114, 0.9968071289409056, 8967000000, 
0.08440954021184338, 0.0738479085424041, 0.9959317506603309, 8972000000, 
0.12459329351278645, 0.027570919968226103, 0.9949357242120768, 8977000000, 
0.08866350742991191, 0.029191621583158828, 0.9941173523797645, 8982000000, 
0.11061602958686773, 0.08145708102040411, 0.9934664460179987, 8987000000, 
0.06556662845096752, 0.09378559860593468, 0.9937138934328178, 8992000000, 
0.052962283274153164, 0.09810996791370617, 0.9943042502328716, 8997000000, 
0.04814356325963242, 0.1167378384129413, 0.9947883844209526, 9002000000, 
0.021082259852631055, 0.1115742382605972, 0.9956044083740341, 9007000000, 
0.009631981561340007, 0.106152483765085, 0.9965756297566223, 9012000000, 
0.024807745635065676, 0.06820386344155305, 0.9975949371651959, 9017000000, 
0.03580775473155618, 0.08097563033017881, 0.9994571161295975, 9022000000, 
0.054673811276829555, 0.056979358109388464, 1.0007708745151938, 9028000000, 
0.0759639965403705, 0.12704567315682475, 1.002374844148313, 9033000000, 
0.10501273813491024, 0.09349124812666249, 1.0033823092448566, 9038000000, 
0.08697089997257748, 0.10497799039802568, 1.004498412888238, 9043000000, 
0.07288266824437656, 0.11019758910812255, 1.0049151785256916, 9048000000, 
0.025338806448791114, 0.14416399356015697, 1.005178200664433, 9053000000, 
0.08199328276127754, 0.12867608548700504, 1.004880699551478, 9058000000, 
0.026501022077028286, 0.11091008332330693, 1.0048082218614418, 9063000000, 
0.0582845735225327, 0.10520626307083857, 1.0028060652244066, 9068000000, 
0.06595099285886004, 0.094452110475404, 1.0019277896420822, 9073000000, 
0.07815275438473437, 0.10257057224624302, 1.0002220555556045, 9078000000, 
0.10958072943350135, 0.09223271804755706, 0.9990228768238498, 9083000000, 
0.06926654331466126, 0.10135945652403663, 0.9979998004398599, 9088000000, 
0.027880864677332688, 0.08626678078695363, 0.9970755157808437, 9093000000, 
0.05862078677910469, 0.09403199193706473, 0.9961727908891164, 9098000000, 
0.06340419570295662, 0.1160891627579091, 0.9957141784146132, 9103000000, 
0.05475107904318928, 0.11513756236229028, 0.9958079384912271, 9108000000, 
0.05794689944797478, 0.10902055065978791, 0.9957744510695367, 9113000000, 
0.07087252694472482, 0.1431280056114931, 0.9959817985243006, 9118000000, 
0.03436561639435527, 0.12245085742943872, 0.9963879251355979, 9123000000, 
0.07711087389090243, 0.12401682637420097, 0.9971219947642497, 9128000000, 
0.05884028089999337, 0.11845247079342648, 0.99731034029475, 9133000000, 
0.04977214392582554, 0.08452850818142792, 0.9993220044762069, 9139000000, 
0.07105036147856343, 0.08147821481064654, 0.9990380464347995, 9144000000, 
0.04966333348061041, 0.10468105859883103, 1.0003970559708157, 9149000000, 
0.0460849299747558, 0.12717325980213806, 1.0010428975414498, 9154000000, 
0.02862089387331305, 0.09041949641019939, 1.0018897866634562, 9159000000, 
0.06034339985789759, 0.12811966796992763, 1.0016423226350057, 9164000000, 
0.08530645315159713, 0.0978376193949673, 1.0017531976943586, 9169000000, 
0.048213724236594285, 0.11301759278360989, 1.0018690276714486, 9174000000, 
0.04803481729684712, 0.11581064434834756, 1.0013679141818617, 9179000000, 
0.04206030591969876, 0.1016557615206029, 1.0011072195883748, 9184000000, 
0.007748783483293983, 0.11811321474117402, 1.0008722728510404, 9189000000, 
0.03278826260014546, 0.11489702731216768, 1.0003182039211485, 9194000000, 
0.017098453943853793, 0.08773955186730276, 0.9998579147457493, 9199000000, 
0.03128969236433828, 0.12029525276337126, 0.9996852691980698, 9204000000, 
0.05437346653440263, 0.1248026334953535, 0.999186411949357, 9209000000, 
0.020079723457779627, 0.11597468065738636, 0.9988728896260641, 9214000000, 
0.06008154322971998, 0.10326674686087892, 0.9980260633135475, 9219000000, 
0.0475083644936074, 0.13669622406803097, 0.9983742998900139, 9224000000, 
0.04393768869096966, 0.11851835048342756, 0.9983062085187999, 9229000000, 
0.045399308546433384, 0.10763541851259874, 0.9983928320851926, 9234000000, 
0.02377591607734887, 0.12931448305006693, 0.997870701163474, 9239000000, 
0.034231271297388954, 0.11559044881897076, 0.9985181773840733, 9244000000, 
0.01382629829810604, 0.14976479196655795, 0.9982859790774172, 9249000000, 
0.05249384701014911, 0.10772558233230164, 0.9989410695839707, 9254000000, 
0.04990514817833552, 0.10209912514009274, 0.9990482265628688, 9259000000, 
0.020195098437979588, 0.10851239491244968, 0.9996592872324165, 9264000000, 
0.025531247916562545, 0.0946498745911861, 0.9996257984888659, 9269000000, 
-0.003952372320482102, 0.16304305628523577, 0.9999390696091023, 9274000000, 
0.009214432097457788, 0.13189768654085324, 1.0000600297088778, 9279000000, 
-0.011002905438857548, 0.1287782626128508, 1.0003680912791828, 9284000000, 
-0.00020289669208656963, 0.13570044366714773, 1.0000255326332776, 9289000000, 
-0.01849440061956978, 0.10912481183351046, 0.9998450453372074, 9294000000, 
0.021754089490230243, 0.13145488124978152, 0.9999931965215773, 9299000000, 
-0.0025996573672985596, 0.11997699114265613, 0.9998186608661201, 9304000000, 
-0.00493443705073816, 0.126420717988668, 1.0002282420330715, 9309000000, 
-0.01504487679959469, 0.153669520785277, 1.0000693257062299, 9314000000, 
0.03276549840394029, 0.12947659843133813, 0.9998886038400784, 9319000000, 
0.011165667382031088, 0.13820085999178908, 0.9995767271112777, 9324000000, 
0.008770202997348387, 0.17058884786730674, 0.9995291698762954, 9329000000, 
0.0010700005068220086, 0.15990567964883756, 0.9995030954696014, 9334000000, 
-0.004208803589691043, 0.16614603844889309, 0.9994266808741266, 9339000000, 
0.004487700263048184, 0.11089612281816794, 0.9989907308710765, 9344000000, 
-0.010506361555600223, 0.13789715128460012, 0.9992375204213014, 9349000000, 
-0.021934930895965262, 0.17673124860919223, 0.9987104324163472, 9354000000, 
0.006117136726214093, 0.14789956148356884, 0.9992651197976349, 9359000000, 
0.05159224481524799, 0.14912107165067806, 0.9993449034343398, 9364000000, 
-0.0306324803633645, 0.1402598920583108, 0.9991907745998795, 9369000000, 
0.008845429409401074, 0.1669396518252244, 0.9990032186237345, 9374000000, 
-0.23218046101055664, 0.23881353433733715, 1.0004889317448513, 9379000000, 
-0.1675929692381542, 0.269218958860392, 1.0042198487529828, 9384000000, 
-0.1632277070081703, 0.1796092852304593, 1.0102479781562095, 9389000000, 
-0.1124359480802696, 0.1515603532435488, 1.0177861183625212, 9394000000, 
-0.08521226802653506, 0.18203978096938872, 1.0245932054141775, 9399000000, 
-0.07711922687347435, 0.14345387703221837, 1.0348097543763042, 9404000000, 
-0.040790459246278575, 0.17540640228382134, 1.043978982699914, 9409000000, 
-0.023534233770421617, 0.16549268805503325, 1.0519093613171324, 9414000000, 
0.001113979994226003, 0.174209850370221, 1.0608984654028961, 9421000000, 
0.03019923655409613, 0.15623022408525955, 1.0647336270414078, 9427000000, 
0.017426448614302665, 0.15807206585276307, 1.068518654943607, 9432000000, 
0.046421526800306374, 0.14695259456605012, 1.0698508732854497, 9437000000, 
0.07740796997787078, 0.12099693785828516, 1.0694121688226415, 9442000000, 
0.059134519522944635, 0.14595068807767342, 1.0666589907765236, 9447000000, 
0.03605689894134692, 0.13623921421656177, 1.0637162633164634, 9453000000, 
0.019749388102842203, 0.14794476417407762, 1.0580170064146366, 9458000000, 
-0.0021387618895434297, 0.18273843773305318, 1.0533154570929577, 9463000000, 
-0.017633787218961555, -0.2075113168495324, 1.0480366002399053, 9468000000, 
-0.05384439488358329, 0.1325199979605164, 1.0445320509278837, 9473000000, 
0.003811326443071944, 0.20337825126612738, 1.039451719459236, 9478000000, 
-0.021787997159183864, 0.185121440907353, 1.03647856169967, 9483000000, 
-0.043308279212615305, 0.18155607593834547, 1.032397004092097, 9488000000, 
-0.03763026273368161, 0.1779481699180104, 1.0299397844202545, 9493000000, 
-0.025741567533385325, 0.17914153059529858, 1.027102214505555, 9498000000, 
-0.026095560121987514, 0.16877791175904627, 1.0232851641164127, 9504000000, 
-0.04840273857618066, 0.1660746764067591, 1.0208785052405462, 9510000000, 
-0.08162996433591863, 0.14277897549780774, 1.018028610205694, 9515000000, 
0.0873448524496935, 0.3053627261781634, 1.0157922757562448, 9520000000, 
-0.0945684778677495, 0.13253389320794323, 1.013791742103367, 9525000000, 
-0.19327285564845276, 0.05132772374374852, 1.0115198286642408, 9530000000, 
0.14030356083127615, 0.29815904656932324, 1.0095801198781493, 9535000000, 
-0.10663967421792792, 0.15981975566951, 1.0077799036672286, 9540000000, 
0.010888204834639348, 0.1209786253128862, 1.0060171216696465, 9545000000, 
-0.18300979999403238, 0.03357315512477818, 1.0039797749464234, 9550000000, 
0.09322978664407182, 0.32613633569315187, 1.0027173100672178, 9555000000, 
-0.05517192769480113, 0.14278339155865208, 1.0016335762144368, 9560000000, 
-0.07927541883218173, 0.18158804991841015, 0.9999139647958072, 9565000000, 
-0.4170626992416103, 0.21550656615484684, 1.0004194810707632, 9570000000, 
-0.22865736367772233, 0.16758648633531265, 1.0037494108262421, 9575000000, 
-0.21135245766987895, 0.17080672279168407, 1.009156629202666, 9580000000, 
0.1596634728144878, 0.15467389203496723, 1.0144471938568116, 9585000000, 
0.5442173668694692, 0.11362084787741655, 1.018636730257543, 9590000000, 
-0.1628580153495205, 0.23811238476028077, 1.017975445043487, 9595000000, 
-0.13444720428302154, 0.19837788280792093, 1.0163764784654554, 9600000000, 
-0.13858706560812928, 0.1751686195069303, 1.0142822681440828, 9605000000, 
-0.09410826935811523, 0.1903520437593744, 1.0125220799839014, 9610000000, 
-0.07993708435321097, 0.17042143844374708, 1.0101924097205213, 9615000000, 
-0.1058673030509408, 0.17448525064571485, 1.0082056560231865, 9620000000, 
-0.04962672416271699, 0.1953138407234794, 1.0065907518305175, 9625000000, 
-0.07334403240743838, 0.15765633085515152, 1.0055394492542749, 9630000000, 
-0.080788185154806, 0.17274880860397884, 1.0042387767299195, 9635000000, 
-0.10315855611251672, 0.1944054596954492, 1.001629294749802, 9641000000, 
-0.08426349814755638, 0.16759249247939864, 1.000684028818674, 9646000000, 
-0.05092040932510887, 0.19983345185882728, 0.9995506942310859, 9651000000, 
-0.06824847603812573, 0.16291532224103342, 0.9985364528504853, 9656000000, 
-0.08459731085759285, 0.19587981945129276, 0.9976484039885187, 9661000000, 
-0.0836460911545687, 0.18477248751475112, 0.9967938245540319, 9666000000, 
-0.08924463848647289, 0.18174329524328897, 0.995374798404754, 9671000000, 
-0.07597289537976364, 0.15990027083208191, 0.99504879332842, 9676000000, 
-0.07983292557698661, 0.1724840887186358, 0.9942676463782211, 9681000000, 
-0.07581962871355605, 0.17144097121470225, 0.9937294231117448, 9686000000, 
-0.07372177264654371, 0.19637236068887992, 0.9928575503283178, 9691000000, 
-0.06382129149599858, 0.17288348665330777, 0.992851077541728, 9696000000, 
-0.0797687834152697, 0.17556854954005388, 0.9919496830104463, 9701000000, 
-0.11155854962332093, 0.17323387865625878, 0.9918972398635467, 9706000000, 
-0.03529943311310294, 0.1887749519633661, 0.9910500565902413, 9711000000, 
-0.06352247800850494, 0.19278801572714369, 0.9908445954565699, 9716000000, 
-0.06727923809624653, 0.1797477160428745, 0.9909678539348034, 9721000000, 
-0.10763090355101687, 0.18455834891720754, 0.9903419643186695, 9726000000, 
-0.10338356712445987, 0.2039316310391156, 0.9898513547743197, 9732000000, 
-0.09797566908208703, 0.19050469535185008, 0.9897737687876723, 9737000000, 
-0.10061658175629104, 0.14830276874215784, 0.9893765281202809, 9742000000, 
-0.09037952349210011, 0.18987969202352697, 0.9893810094661801, 9747000000, 
-0.08772940808622094, 0.14854934642013776, 0.9891489155891956, 9752000000, 
-0.07245008418438868, 0.19762460713577976, 0.9886096207883452, 9758000000, 
-0.07560272857337134, 0.1600203335593581, 0.9886350872564897, 9763000000, 
-0.06887625962958892, 0.21469642736083938, 0.9881858349935014, 9768000000, 
-0.09272352550025861, 0.1542292531323397, 0.9879722744404255, 9773000000, 
-0.09898595308428658, 0.18485062724077245, 0.9879223114447369, 9778000000, 
-0.08193991685044112, 0.20837115605529674, 0.9881108657595011, 9783000000, 
-0.09593936330701164, 0.1718441592946343, 0.9875404108215804, 9788000000, 
-0.08830439270049839, 0.17117247224860832, 0.9872295623292746, 9793000000, 
-0.09286405223724853, 0.16914855394930942, 0.9873372375960245, 9798000000, 
-0.09177606700240541, 0.1890672190820558, 0.986848074630509, 9803000000, 
-0.10005474854538157, 0.19314191732458444, 0.987150138012598, 9808000000, 
-0.09006995490836095, 0.1866642409273073, 0.9870095650782105, 9813000000, 
-0.11865309518697048, 0.18402164047372685, 0.9867250899734763, 9818000000, 
-0.08497999300655629, 0.14797156774404152, 0.9866838251443741, 9823000000, 
-0.11366692195707677, 0.1620602526218466, 0.9866023724138421, 9828000000, 
-0.1075507836431344, 0.17785121437252333, 0.9863370459991978, 9833000000, 
-0.06316713807940857, 0.20684450509667043, 0.9859864325723786, 9838000000, 
-0.08953324858633847, 0.1980200779694429, 0.9855176535711719, 9843000000, 
-0.10720529034398278, 0.18438923222879747, 0.9852640798421443, 9848000000, 
-0.16480010553582905, 0.13345076867360808, 0.9846417886004861, 9853000000, 
-0.24727342769645239, 0.10042676685949478, 0.9863403164691686, 9858000000, 
-0.2204110502987872, 0.19806860771684184, 0.9902723999143921, 9864000000, 
0.010948483711847937, 0.18503624472940447, 0.9969875673895853, 9869000000, 
-9.860543123550725e-05, 0.18689329191187204, 1.0023934797627059, 9875000000, 
-0.09161065152593904, 0.15828397379614256, 1.0077432386857215, 9880000000, 
-0.07526214776035874, 0.18863906023357602, 1.0111409601762247, 9885000000, 
-0.13101767971003936, 0.1830621677181104, 1.0156715480376155, 9890000000, 
-0.10011443263420759, 0.14169278364391483, 1.017784343724604, 9895000000, 
-0.1707997907083141, 0.20661941246699597, 1.0198151857728506, 9900000000, 
-0.1406953600124019, 0.10222151001774288, 1.0207426766892396, 9905000000, 
-0.15345685283912835, 0.19630097477573674, 1.0221138574058428, 9910000000, 
-0.029812528687658484, 0.12534446670149554, 1.0231252476469876, 9915000000, 
-0.0662385191376405, 0.1949188238364444, 1.0234207521325844, 9920000000, 
-0.08864275173416353, 0.14165976377180808, 1.023864112388721, 9925000000, 
-0.08883977973166203, 0.15161907831714513, 1.0241405101657033, 9931000000, 
-0.10109181294827145, 0.19963603659178628, 1.023819600419543, 9936000000, 
-0.08542132768646195, 0.15725903797574992, 1.0233309841945744, 9942000000, 
-0.0694170355483461, 0.11684219717316416, 1.0230156374034554, 9947000000, 
-0.11052986469477641, 0.2215068656574533, 1.0224292099068242, 9952000000, 
-0.04827109998750182, 0.10450470930297834, 1.0217081795840408, 9957000000, 
-0.11192685590781684, 0.21900552318099648, 1.021741012673135, 9962000000, 
-0.06250656985123812, 0.09436687295845972, 1.0206319352216453, 9967000000, 
-0.09492131849615154, 0.20687050697265133, 1.0198467448155544, 9972000000, 
-0.031152356949738044, 0.12907258068330252, 1.0191938439105361, 9977000000, 
-0.06010828252329711, 0.2246891610932787, 1.0183728209529572, 9983000000, 
-0.07352706700039938, 0.15945424482996415, 1.0166968032967671, 9988000000, 
-0.03630190903898088, 0.11111421504565863, 1.0156488407602278, 9993000000, 
-0.06406789402212118, 0.1976798743497422, 1.0141984737831808, 9999000000, 
0.05588348420089575, 0.1441171382680125, 1.0115761849458407, 10004000000, 
-0.04640550902982045, 0.16183179662801153, 1.0084694802648695, 10009000000, 
-0.053487881230209075, 0.16918511877248602, 1.006180441819519, 10014000000, 
-0.05687506892657063, 0.1527592564855827, 1.003074758809481, 10019000000, 
-0.07559724270769043, 0.14832514259293275, 0.9998447993148782, 10024000000, 
-0.06204715580729109, 0.15321265813376223, 0.9971452119478924, 10029000000, 
-0.05507704402562749, 0.1462226252377257, 0.9947636040213714, 10034000000, 
-0.06829582350802336, 0.16776348821850934, 0.9926323303574127, 10039000000, 
-0.05831977126830651, 0.14450824257855333, 0.9913286218937702, 10044000000, 
-0.038302462085823274, 0.16493011535602176, 0.9906453006366618, 10049000000, 
-0.06341779626347349, 0.14743672420543857, 0.9907347174586044, 10054000000, 
-0.2282522381182614, 0.16161575930075348, 0.9914883753399056, 10059000000, 
0.11528364318031604, 0.14082048875750527, 0.9920696095684441, 10064000000, 
-0.2708202914479017, 0.1695554241063171, 0.9934705033866295, 10069000000, 
-0.021475806064967712, 0.18509054725075044, 0.9956614964739704, 10074000000, 
-0.03722665994757901, 0.11827890108693835, 0.9977301575364327, 10079000000, 
-0.06701348648025716, 0.15639502146763057, 1.0000147420404595, 10084000000, 
-0.021144537491911117, 0.14394105646813432, 1.0012571417303133, 10089000000, 
-0.05919428653516157, 0.12574229847544546, 1.0029614047716011, 10094000000, 
-0.04790488360841867, 0.14570529357051243, 1.0042854110320862, 10099000000, 
-0.040615347279634756, 0.14831516550868493, 1.0048071884563217, 10104000000, 
-0.0898467536053316, 0.13330453640548218, 1.0053161425638009, 10109000000, 
-0.04801924701557864, 0.15549454629620565, 1.0053027009798845, 10114000000, 
-0.03143782421183064, 0.16407074687613943, 1.0049336281066963, 10119000000, 
-0.03494390474254423, 0.1420594056715287, 1.004276995416857, 10124000000, 
-0.04707582846630487, 0.13579077049323562, 1.0031503282815188, 10129000000, 
-0.06627020676874787, 0.14385517367514625, 1.0027469725903553, 10134000000, 
-0.05363629085212855, 0.14463607316812402, 1.0011655535337227, 10139000000, 
-0.031123650097599653, 0.16196964768344285, 1.0001214750532403, 10144000000, 
-0.04169709069495116, 0.14723304189940487, 0.9991664931667565, 10149000000, 
-0.031325906039813126, 0.14732384963013145, 0.9980858198848599, 10154000000, 
-0.0541906949824305, 0.14362283131989545, 0.9974231014030096, 10159000000, 
-0.016321951419709185, 0.16475340714164763, 0.9962263079223312, 10164000000, 
-0.05730983789412386, 0.16121864462926935, 0.9961814087337906, 10170000000, 
-0.03853747420062676, 0.15637309148126627, 0.9961880105929878, 10176000000, 
0.003222191232430241, 0.154397553992866, 0.9960679082625723, 10181000000, 
-0.048254780226671304, 0.12108316104431724, 0.9971479169141709, 10186000000, 
-0.2417638749035709, 0.016643000870412965, 0.9944610534861323, 10191000000, 
0.18997062261265313, 0.18776446721640885, 0.9912409319733354, 10196000000, 
0.22633376042114617, 0.23040056958918095, 0.9897692965393604, 10202000000, 
1.1081839801181586, 0.501235231330573, 0.9914635565250763, 10207000000, 
1.3056202295566262, 0.7469126655556078, 0.9972736846241337, 10212000000, 
-0.749593916456218, -2.466325625377505, 1.004778303422531, 10217000000, 
-3.832549713920523, -1.0411579360517973, 0.9981765575540616, 10222000000, 
-3.197637981050786, -1.7805398574148525, 0.9796936332742882, 10227000000, 
-7.377603960940033, -6.7516400334216415, 0.9753164722203783, 10232000000, 
-5.367004058282485, -0.44936952666101027, 0.9714321544900206, 10237000000, 
-6.999798550351743, 0.20902523792197406, 0.9681187357095173, 10242000000, 
-5.134808983426297, 0.19660369462909866, 0.9664251622135076, 10247000000, 
-3.6269171154796176, 0.16808275212328133, 0.9639247909830726, 10252000000, 
31.796072533462006, 8.762109640150324, 0.9744512784815551, 10257000000, 
5.074842412366728, 2.8783357244088523, 0.9685199588164108, 10262000000, 
-2.8393391779563646, -3.3973133919331326, 0.9257655015046923, 10267000000, 
0.8924995416021437, 4.520206342335005, 0.8981995010822742, 10272000000, 
-5.864626995371354, 1.1283048521490235, 0.893394106134168, 10277000000, 
-6.012027980351902, 0.2849720021764065, 0.8912034266944296, 10282000000, 
-4.419313034623585, 0.2821805502355814, 0.8890358160872567, 10287000000, 
20.924181169364545, 0.2147606554767018, 0.8719862341645938, 10292000000, 
4.77400025649513, 1.1281536382182213, 0.8590487441313815, 10297000000, 
-7.141024587764008, -1.557240639377262, 0.8521079961702206, 10302000000, 
-3.4372484741775127, 0.1779719549330029, 0.8447073061142495, 10307000000, 
-0.9614416941715385, 0.09944625275643629, 0.8344955787196702, 10314000000, 
0.07313789884487347, 0.05253368839544674, 0.819433555939838, 10323000000, 
-0.054548132963252303, 0.01676592571985079, 0.8121867167733932, 10328000000, 
0.5890676746568482, -0.7396750644842494, 0.8048643224088179, 10333000000, 
1.81186369887556, -1.9849935903508122, 0.7954053468013511, 10338000000, 
-1.9836684418443058, 1.392914177329061, 0.7881896526540709, 10343000000, 
-0.8996136774919495, 1.06783051687969, 0.7843386322714598, 10348000000, 
0.0755715273650593, 0.42948794429263887, 0.7749685917828047, 10353000000, 
1.796371020037104, -2.037324812466819, 0.766537805206185, 10358000000, 
-1.5120310746524632, 0.9159987381415847, 0.761265327015546, 10363000000, 
-0.8224529868401121, 0.7797652032370715, 0.7529980902480413, 10368000000, 
-0.2087415116078238, 0.24350325947626755, 0.7482871590363173, 10373000000, 
-0.12613428336065843, 0.06473523120895919, 0.7405629315574701, 10378000000, 
-0.07782211548159298, 0.05378652699634738, 0.7368480963794645, 10383000000, 
0.07207177322775285, -0.2696036512564619, 0.728350649547805, 10388000000, 
-0.1050687531518049, 0.2498056744983037, 0.7226519781210198, 10393000000, 
0.22617393069521557, -0.38630128753833376, 0.7162320153132242, 10398000000, 
1.2525080801296344, -2.1067069019273, 0.7105072344878208, 10403000000, 
-0.12629010074175778, 0.43511344122083073, 0.7027002824064413, 10408000000, 
-0.4796769596735979, 0.8232528466169153, 0.6970553388161393, 10413000000, 
1.5859035791198408, -2.7389774436345866, 0.6914101277000329, 10418000000, 
-0.6146911447745533, 0.9762936359539318, 0.6835636691177572, 10423000000, 
0.3286304450485022, -0.4239421805232158, 0.678152197836199, 10428000000, 
0.5296018951563106, -0.8841713249170282, 0.671643699335524, 10433000000, 
-0.6977855100967761, 1.175122091255996, 0.6657047722659037, 10438000000, 
0.5179657664406757, -0.6359001485275475, 0.6595542245097809, 10444000000, 
1.0146688527689436, -1.7720168786487103, 0.6516101266546556, 10449000000, 
-0.6237421991812973, 1.5637542129289828, 0.6454776556867627, 10454000000, 
-0.17295699714300006, 0.31883834451572796, 0.6403886054405439, 10459000000, 
-0.3455588345620652, 0.7325657943395762, 0.6350004872909915, 10464000000, 
0.1223824297556275, 0.405484124601135, 0.6324410660980527, 10469000000, 
0.5242583924586242, -0.7915288256892943, 0.6246314121267594, 10474000000, 
0.7152318741347633, -1.862573879059051, 0.6192085239646351, 10479000000, 
-0.5960662233295521, 1.292548994417651, 0.6154864352147741, 10484000000, 
-0.09481338674529709, 0.5087754420219828, 0.6128697019488508, 10489000000, 
0.14862404806094875, 0.04084980590119602, 0.6087322717466636, 10494000000, 
0.2786560717531743, -0.154619867687793, 0.6054894601664537, 10499000000, 
0.32944488665147253, -0.19321494353808208, 0.601729350439359, 10504000000, 
0.3517981738894299, -0.17523604431518877, 0.5981866067530391, 10509000000, 
0.34504123529446207, -0.2497641730842691, 0.5957904044886343, 10514000000, 
0.2585916441391788, -0.22018200533565666, 0.5919573065267857, 10519000000, 
0.3148515452272461, -0.1900155134818933, 0.5894354084670274, 10525000000, 
0.29172014965644427, -0.28421092283236415, 0.5847644948157245, 10530000000, 
0.31625246320984696, -0.2311003620614992, 0.5816010728170835, 10535000000, 
0.30907747004213115, -0.21797506681943912, 0.5790114476818116, 10540000000, 
0.33841280275285207, -0.2454269088953361, 0.5758121556512126, 10545000000, 
0.39553492728748496, -0.2290783385123196, 0.5726580033903901, 10550000000, 
0.34698815863544746, -0.2599276627819219, 0.5695682444053096, 10555000000, 
0.39782907215616786, -0.2726926766570519, 0.5666679477286497, 10560000000, 
3.659661253482317, -0.9804736425756638, 0.5620913499122756, 10565000000, 
7.768305109945139, -0.5107964098682432, 0.5524742739983876, 10570000000, 
-4.5624286706037225, 0.27312897968779254, 0.5485923660285357, 10576000000, 
-3.241806567259362, 0.04212266422627735, 0.5459844064952517, 10581000000, 
-0.489899201985453, -0.16599157857260324, 0.5431408743587395, 10587000000, 
0.5814418269617245, -1.5497551987897795, 0.5400292674529628, 10592000000, 
6.270378312468525, -0.32527537725999994, 0.5329714464037625, 10597000000, 
5.912038568163725, -0.39189211906880234, 0.5235804755897298, 10602000000, 
-6.417036431697654, -0.10251164100448082, 0.5210384361055226, 10607000000, 
-3.0261849842513655, 0.5547946254437801, 0.5189017312440375, 10612000000, 
-0.8068490363082937, -0.0008200243060980904, 0.5169856292538906, 10617000000, 
2.1696587163550447, -1.5697985582043943, 0.5116473504147369, 10623000000, 
7.027839614332814, 0.21705973613409582, 0.5029174772712445, 10628000000, 
-3.3943507950932927, -0.36931324670695254, 0.4985676122816067, 10633000000, 
-3.440591830210825, 0.5783640709111036, 0.49704505839707847, 10638000000, 
-0.7566879659072242, -0.013647200954711437, 0.49516046228414407, 10643000000, 
0.11227223525865411, -0.3096796946275275, 0.49331672681152244, 10648000000, 
6.580527082552873, -0.6197065958043673, 0.48616707682740135, 10653000000, 
5.43711836785716, -0.6670673366488967, 0.48041169029366493, 10658000000, 
-5.042697586128385, 0.020549628564428064, 0.4791863997558191, 10663000000, 
-2.6838354002780114, -0.17805317447580496, 0.4773201515053057, 10668000000, 
-0.5383289020986933, -0.29123635788353414, 0.4767506137879139, 10673000000, 
0.31889053814177665, -0.7509564861612968, 0.47398817920886005, 10679000000, 
6.810855789734454, -0.16658083027397969, 0.4635134850421686, 10688000000, 
-6.018360178411014, -0.8923932931268461, 0.46274935988670485, 10693000000, 
-2.968089482158966, 0.0039689223553706215, 0.4622039239345325, 10698000000, 
-0.5791899530505158, -0.23686514685406873, 0.46130849608945934, 10703000000, 
0.31268831353168597, -0.3781899430379761, 0.4592270108609659, 10708000000, 
6.515998968202182, -0.282060768461807, 0.4541902499504066, 10713000000, 
6.421697562628391, 0.07981478275611792, 0.4500024010750742, 10718000000, 
-5.126657518269523, -0.9864260875818013, 0.44968601768295285, 10723000000, 
-1.716924197095706, -0.32978957726778024, 0.4489648600849683, 10728000000, 
-0.5839233492700924, -0.30750961163793233, 0.445285926038308, 10733000000, 
0.4485990153953428, -0.445908413569916, 0.4408427520940671, 10738000000, 
1.5434334457261838, -1.7370624087383404, 0.43571483693834623, 10743000000, 
2.6492402560332744, -2.586787385048709, 0.4282513615732217, 10748000000, 
-0.3059520091485635, 1.5049713380822327, 0.4234140806104599, 10753000000, 
1.7721647828469873, -1.1277988635108231, 0.4185140369565861, 10758000000, 
0.5547716235264388, 0.40161408959221884, 0.4140323778642045, 10763000000, 
2.307315666320856, -0.6427744048144167, 0.411026061291458, 10768000000, 
1.802476439522305, -1.3894492289255678, 0.4043027683786886, 10773000000, 
-1.907829554554521, 0.5012547133065266, 0.4008179375409909, 10780000000, 
0.3823317932707629, -1.7118356854017993, 0.39719078667923546, 10785000000, 
0.21610390429437026, 0.3054810484701786, 0.3946097222051506, 10790000000, 
0.863131699485749, -1.183922854009603, 0.39148194072645753, 10795000000, 
0.5523481028382902, 0.0011245493802911647, 0.3883959647676475, 10800000000, 
0.43595554039907713, 0.4882040338693529, 0.38737528252772113, 10805000000, 
0.8756463741928795, -0.915364858056334, 0.38377714378747524, 10810000000, 
0.7408600339394568, -0.5202994605031185, 0.38025568086761, 10815000000, 
0.6870588587514855, -0.17834512085181972, 0.37838858847625334, 10820000000, 
0.8241311071739711, -0.6425124636648665, 0.37542932163752196, 10825000000, 
1.284755236649205, -0.23566856283618592, 0.37258378786393254, 10830000000, 
4.701525958925609, -0.5260638886814758, 0.3683772214194276, 10836000000, 
-0.7656536003574006, -0.2641066700181742, 0.36267579798916333, 10841000000, 
-0.3637040864920395, -0.5237355772706345, 0.35939973564772304, 10846000000, 
0.236357745440578, -0.5043231096867187, 0.35560406180922843, 10852000000, 
0.6243224722362382, -0.5777665023918415, 0.35185760862894766, 10857000000, 
0.650762734960051, 3.037803897765804, 0.3472376071831114, 10862000000, 
2.6645338167787944, -4.5172707529140546, 0.34249604967961655, 10867000000, 
0.7183480260412557, -1.0393424405745921, 0.33973923032185277, 10872000000, 
-0.9660860650743188, 4.213050509659309, 0.33467573323882066, 10877000000, 
3.5827207264430165, -5.465367795677707, 0.33085946497963087, 10882000000, 
-1.3759779596237216, 3.813432738146929, 0.32693897803452826, 10887000000, 
1.1395085199706103, -0.9955802046785974, 0.3233450745382884, 10892000000, 
1.115507897427572, -0.8297761513376681, 0.3212474908173169, 10897000000, 
1.0575058829108774, -0.7683598307594426, 0.31899557844285176, 10902000000, 
0.7761970430377776, -0.532038307865301, 0.3180628415450011, 10907000000, 
1.3913016536895644, -0.9885880361287209, 0.31769322286524815, 10912000000, 
0.9855378974643153, -0.7221649512024436, 0.31793144849482735, 10917000000, 
0.9490490917428677, -0.6124014077899006, 0.3180140231379569, 10922000000, 
1.3452723975300858, -0.9442910920633034, 0.31818849904278895, 10927000000, 
1.1615666308916206, -0.7680193627716955, 0.3176826063962409, 10932000000, 
1.119984449243322, -0.7765673239844756, 0.3178904811473459, 10937000000, 
0.9143813919527611, -0.646762689657167, 0.31809652300771585, 10942000000, 
1.4149988339100945, -0.969692037521052, 0.31795947043085365, 10947000000, 
0.9258592830472143, -0.6665614714411985, 0.3176830514471036, 10952000000, 
1.4323216546907198, -0.9563773844142899, 0.31754073699433, 10957000000, 
0.9402505532291328, -0.6525637569024565, 0.3178411407312198, 10962000000, 
1.4419986010649697, -0.9949295291122454, 0.31760444237152, 10967000000, 
0.9629051849615403, -0.6852598821516364, 0.31767118520017623, 10972000000, 
1.4443811989654012, -0.9707825066184045, 0.3176758826312981, 10977000000, 
0.9680038469200921, -0.6824629174663677, 0.31751654644795835, 10982000000, 
1.4603764052341575, -0.9954927685627496, 0.31763817021434376, 10987000000, 
0.952757251407834, -0.696031175811817, 0.3173653471430797, 10992000000, 
1.4885604181452115, -1.005646311202923, 0.3171355951932699, 10997000000, 
0.9919172813260686, -0.6576697217239442, 0.31734949033401966, 11002000000, 
1.4505580474672346, -1.022928542308528, 0.31758047841336606, 11007000000, 
0.8419415526026857, -0.6083710724675427, 0.3171279591840769, 11012000000, 
1.3979469549554846, -1.0130220679745117, 0.3171053755600912, 11017000000, 
1.0514094468594906, -0.6777105839051629, 0.31722006117498647, 11022000000, 
1.5241401196858004, -1.0724359144025144, 0.31702529608365365, 11027000000, 
1.2630591361826797, -0.8798708156639954, 0.31788832085005847, 11032000000, 
1.2469436984423663, -0.8850537927954651, 0.31750234121394955, 11037000000, 
1.269559462667905, -0.8722224821839935, 0.31699569112329584, 11042000000, 
1.256405703136417, -0.859274660349909, 0.3173079939149021, 11047000000, 
1.1442549998103062, -0.794804723478313, 0.3168058106662386, 11052000000, 
1.5169131299873388, -1.0592278084138216, 0.31678650344355647, 11057000000, 
0.7791567739059567, -0.5592481341475414, 0.31674493058661674, 11062000000, 
1.5059681553513018, -1.076938317349342, 0.31695015646901126, 11067000000, 
1.5198025741840075, -1.076447924160059, 0.3167227829219672, 11072000000, 
0.7622673833220154, -0.5510704292213762, 0.3164656839905393, 11077000000, 
1.5457866946147472, -1.0499232806097638, 0.3167627431759671, 11082000000, 
0.9595607939400448, -0.6751172175073188, 0.316797338827937, 11087000000, 
1.2768698415221456, -0.9163410982302767, 0.31650060628941046, 11093000000, 
1.2725700719542041, -0.9201431617549033, 0.316245015047925, 11098000000, 
1.512054590540737, -1.0677419120444993, 0.31623763291668455, 11103000000, 
1.5393713440020007, -1.069611258239737, 0.3168409388729293, 11108000000, 
0.8158255190744709, -0.5196075134055534, 0.31644418266495694, 11113000000, 
1.5582679302441478, -1.0927311513050644, 0.3161435374862347, 11118000000, 
1.5276099842363433, -1.0578806474136824, 0.31624028662907766, 11123000000, 
0.7518812380653511, -0.5298674123633128, 0.31609220145672157, 11128000000, 
1.5255532652151138, -1.0603532094410348, 0.31629515431861466, 11133000000, 
1.5471745881269718, -1.0756710852950708, 0.3162228687561898, 11138000000, 
1.0323950110937823, -0.7236439432968536, 0.3163150425470686, 11143000000, 
0.9966249961180094, -0.7027945887696282, 0.31604523909713356, 11148000000, 
1.755264620515844, -1.2677779097109885, 0.3160927552963714, 11153000000, 
1.0146917476877344, -0.6991302269625848, 0.3161575199409995, 11158000000, 
1.3206579683999502, -0.9004889928355208, 0.31594628568328864, 11163000000, 
1.01950744924596, -0.7080811998340263, 0.31609178242276764, 11168000000, 
1.7018446034333554, -1.2159600437051084, 0.31568526077797554, 11173000000, 
0.9958808424659583, -0.7015639547093105, 0.3157556911113481, 11178000000, 
1.3417314988863378, -0.911667125628589, 0.3158304316800218, 11183000000, 
1.0121376475396329, -0.6931995232248734, 0.3158619638661793, 11188000000, 
1.6617893747596328, -1.1714824086015811, 0.3156344805212069, 11193000000, 
1.0017042959565337, -0.6912333277294564, 0.3157972293742725, 11198000000, 
1.328955744280702, -0.950352090510334, 0.3153365669310561, 11203000000, 
0.9436769860857773, -0.8199315799848877, 0.31557077169513226, 11208000000, 
1.6871632388860958, -1.015033046513986, 0.31542574962936365, 11213000000, 
1.1458909811396787, -0.7720935480772968, 0.3150528610781894, 11218000000, 
1.2614933140312554, -0.8695462434982906, 0.31504361252590457, 11223000000, 
0.9427013961677435, -0.8107694961167985, 0.3150593957645349, 11228000000, 
1.2720913771935416, -0.9050325420728829, 0.31468348097987103, 11233000000, 
1.198772187496724, -0.8371496944687697, 0.3150852664936707, 11238000000, 
1.1917746746713305, -0.8251616019328927, 0.31480183330212325, 11243000000, 
1.1142345986417523, -0.8444852622707987, 0.31454353459098905, 11248000000, 
1.5433215506102262, -0.8901910051981542, 0.3141014839636838, 11253000000, 
0.8887467359098278, -0.7887528880411651, 0.3138647651512759, 11258000000, 
1.4319252380952872, -0.8214847418515505, 0.31407320249272325, 11263000000, 
0.8887874896991595, -0.7683039605366799, 0.3135949554678456, 11268000000, 
1.4918014465187732, -0.85693305400991, 0.31318207023666245, 11273000000, 
0.8537997702085821, -0.8126878564031693, 0.31307528243356453, 11278000000, 
1.437194791193719, -0.8260926973069265, 0.31307204478371115, 11283000000, 
0.861905083443359, -0.8046052539766931, 0.31283778853325556, 11288000000, 
1.446984114038784, -0.8160578350718388, 0.3124127198020894, 11293000000, 
0.8113647806503662, -0.7772652410144479, 0.3123746493321121, 11298000000, 
1.4116740052115697, -0.7430999188406212, 0.3123301168199215, 11303000000, 
1.1181252195581, -0.7536619444266169, 0.31185954179135866, 11308000000, 
0.746372049785304, -0.8485480980678085, 0.311932624752138, 11313000000, 
4.228125620462973, -5.338701221635489, 0.305918501825695, 11318000000, 
3.1888329010263434, -2.0982481465924914, 0.30186357939710623, 11323000000, 
1.608373962366688, -0.3248377257115636, 0.2970946259127995, 11328000000, 
2.0589479858961446, -0.9256455503524984, 0.29290348905586594, 11333000000, 
-0.27188515022394333, -0.8541299191076471, 0.2895665247457491, 11338000000, 
-6.650399949831163, 4.033425829633344, 0.28780648656027336, 11343000000, 
2.5743616846637067, -1.0857476221434, 0.2816755457300994, 11348000000, 
4.73140932046207, -3.250710574953787, 0.2795705958521567, 11353000000, 
-0.9789652933304055, 1.2052846960247026, 0.27542013215933697, 11358000000, 
2.6642548094622467, -2.402995621555515, 0.274217270851804, 11363000000, 
0.8629174563777858, -0.0780910523351506, 0.2689898993898957, 11368000000, 
1.4432704444759004, -0.7818508133430592, 0.26869142770359594, 11373000000, 
0.30747674314194207, 0.9710331335965144, 0.26475750046559127, 11378000000, 
3.3917216912293404, -2.183414067771027, 0.26297746841674285, 11383000000, 
-0.2676385728449307, 0.357482797477678, 0.2639828083022556, 11388000000, 
-4.715639367604568, 2.4362057406799917, 0.2625580016510517, 11393000000, 
10.670164968741977, -5.717409977257166, 0.25865928462114757, 11398000000, 
0.14801032131230987, -0.3613282718001947, 0.25885128229848564, 11403000000, 
0.24041044454108274, -0.5074882723715158, 0.2592505307278278, 11408000000, 
0.7199086414735951, -0.5306404474421982, 0.25974500276738066, 11413000000, 
0.8351289448253967, -0.44141935458985815, 0.2592164898505151, 11418000000, 
0.8790900365912759, -0.4792617707874959, 0.25915551957576927, 11423000000, 
0.8586401396573452, -0.48777943883895597, 0.25882209862612104, 11428000000, 
0.8369587101171068, -0.5104607244395603, 0.25721197331016227, 11433000000, 
0.8007633372648467, -0.5223035046046889, 0.256396515592176, 11438000000, 
0.7905647261623453, -0.558682614836613, 0.2543052464759956, 11443000000, 
0.7676829476917246, -0.5192988923927501, 0.2532100983873406, 11448000000, 
0.7074503447653988, -0.549913695833258, 0.25035364825223366, 11453000000, 
0.6960831598695081, -0.5147075481953628, 0.24867620402352492, 11458000000, 
0.6896103301891965, -0.542412955297267, 0.2459750423449625, 11463000000, 
0.6628877306545888, -0.5336199406209868, 0.24346411667084386, 11468000000, 
0.6255734836798984, -0.511912261743758, 0.24113086525277302, 11473000000, 
0.5989565396019231, -0.47426163533813315, 0.2387030341037205, 11478000000, 
0.5438536501305298, -0.48535774633781953, 0.23607272287280695, 11483000000, 
0.5783192022186254, -0.4438075592512673, 0.23381636964872407, 11488000000, 
0.5047315790831782, -0.4663164385664452, 0.23180417487826555, 11493000000, 
0.49706255724137083, -0.4528639019013885, 0.2290914517614566, 11498000000, 
0.4626927158441839, -0.44793593610546345, 0.22745648503014232, 11503000000, 
0.4434519080740586, -0.4278675959337846, 0.22596566983294492, 11508000000, 
0.43815109969040644, -0.4153685045248864, 0.22406550934876437, 11514000000, 
0.3896541412393454, -0.39042094178533576, 0.2223388037937409, 11519000000, 
0.3914984558023358, -0.3679906931353905, 0.2215548277737605, 11524000000, 
0.34589971434945244, -0.3449333297928501, 0.2205136050850212, 11529000000, 
0.3426551968719144, -0.37854293361082875, 0.21986952309366467, 11534000000, 
0.28811758848405133, -0.3519992664511376, 0.2191920324192897, 11539000000, 
0.254038660379827, -0.3559191202840038, 0.21934253339065268, 11544000000, 
0.6632996416201554, -0.18332003866974153, 0.21933753899568695, 11549000000, 
0.6194789504204018, -0.22782886241347017, 0.22030394647666984, 11554000000, 
0.5230702977998338, -0.22857808815893207, 0.22179361780928258, 11559000000, 
0.14624464500222475, -0.28274169876961824, 0.22399845416881767, 11564000000, 
0.27783247580377707, -0.24400493782985844, 0.22570408601713954, 11569000000, 
0.28271569807479635, -0.2061159559846677, 0.22757147668030012, 11574000000, 
0.3230218891725241, -0.18631983231429036, 0.22930360396453042, 11579000000, 
0.32935923658424754, -0.18752002269059556, 0.2312834000992284, 11584000000, 
0.3458305032983913, -0.16847330256415138, 0.23223303853528074, 11589000000, 
0.3219142425529915, -0.17443008769012938, 0.23301029579787996, 11594000000, 
0.3621133474655314, -0.14959186670356883, 0.23403967275820461, 11599000000, 
0.365401412909012, -0.09712408168007643, 0.23467398857675417, 11604000000, 
0.3508921233053655, -0.08509088205097798, 0.23542809974731918, 11609000000, 
14.425115523185195, 0.19600940451413146, 0.2763030997993599, 11614000000, 
-0.20684136546744789, -0.4294550058184287, 0.3988876563569611, 11619000000, 
-2.5264628511367637, -0.6819475779205582, 0.5045900980284624, 11624000000, 
6.490462969795052, 1.2559494952303942, 0.5870797972081746, 11629000000, 
2.242054758441375, -0.60783058507383, 0.6653722009709294, 11634000000, 
0.38723533844716634, -0.20055925095536017, 0.7006962262279636, 11639000000, 
0.3097407853056976, -0.159376852584505, 0.7432601240490475, 11644000000, 
0.44122348774810705, -0.11164918975338844, 0.7683311005025066, 11649000000, 
0.53433873700187, -0.11550591603474074, 0.7922982139222988, 11654000000, 
0.45804079941514075, -0.16498605347024575, 0.8320932906359919, 11659000000, 
0.16196280137403862, 0.03019229691468927, 0.8533210975457245, 11664000000, 
0.691147598511827, -0.2854070200060305, 0.8762891201831662, 11669000000, 
3.4763752704510393, -0.9494473046254431, 0.8843497353784582, 11674000000, 
-0.26968944861647404, 0.6883683088495484, 0.8833755779418296, 11679000000, 
-0.7873981309361358, 0.9305826326699256, 0.8830456446528065, 11684000000, 
-0.4647648571141363, 0.7444832241991706, 0.8823501995577092, 11689000000, 
-0.32936469915060435, 0.6651834746527998, 0.8819747165771119, 11694000000, 
-0.30418467416948775, 0.7358083813809668, 0.8811989904819758, 11699000000, 
-0.4067185902642911, 0.7752610559240071, 0.8807656482833088, 11704000000, 
-0.4229848744208275, 0.8281003109051246, 0.8803117293917339, 11709000000, 
-0.18663876699018325, 0.664129668248579, 0.8798992458555654, 11714000000, 
-0.0019728872005990994, 0.45788786445144547, 0.8794342380577803, 11719000000, 
0.11274962423514626, 0.4055682105876601, 0.8792431762886306, 11724000000, 
0.10753221316169315, 0.3679319821136963, 0.8789447028542072, 11729000000, 
0.10882531864033217, 0.34445702292027497, 0.8786174961755476, 11734000000, 
0.1285391357438953, 0.4069632119257693, 0.8778602955859464, 11739000000, 
0.392073676258116, 0.07951866483014383, 0.8778181321369318, 11744000000, 
0.03806283113236504, 0.4498687843571643, 0.8770868381330191, 11749000000, 
0.052154363776905105, 0.4193336210547937, 0.8766792794822055, 11754000000, 
0.07954288861988693, 0.4063707603837324, 0.8765015289049779, 11759000000, 
0.06381938437591117, 0.4513551450279285, 0.8759520309996943, 11764000000, 
0.06186878976954922, 0.4520688410032882, 0.8756031932084825, 11769000000, 
0.025725185574938955, 0.44753946294292374, 0.8749763418384444, 11774000000, 
0.013702389557424772, 0.48803128320430844, 0.8746408270508087, 11779000000, 
-0.007779481751833885, 0.47487528362059717, 0.8738971166775801, 11784000000, 
0.013040836748956081, 0.5160610113228378, 0.873827658869093, 11789000000, 
0.018194055782190827, 0.5471779470179572, 0.8730715721107977, 11794000000, 
-0.02725531308770033, 0.5486832161615692, 0.872396367566943, 11799000000, 
-0.011533118488388328, 0.5844183616178442, 0.8724052233648812, 11804000000, 
-0.0010347988435152333, 0.5639824583632465, 0.8720153237886172, 11809000000, 
-0.024271007185976967, 0.6066893965333875, 0.8711343505889005, 11814000000, 
-0.07597444387152016, 0.5973290534335657, 0.870794110498352, 11819000000, 
-0.06766895424976717, 0.5961355895203012, 0.8706738093296924, 11825000000, 
-0.09947718310621312, 0.6618478401341142, 0.869786675947348, 11830000000, 
-0.06565379480244735, 0.6373124429433702, 0.8691577458777204, 11835000000, 
-0.0999379098513472, 0.6574654200831842, 0.8682643644587571, 11842000000, 
-0.11764120698230333, 0.6703068789348784, 0.8679289385719511, 11847000000, 
-0.10614410004103982, 0.611614601627037, 0.8675610883048727, 11852000000, 
-0.13511640796468516, 0.6708856958789862, 0.8668469208063979, 11857000000, 
-0.1580701311970997, 0.6866960941120561, 0.8662661352822605, 11862000000, 
-0.13576941488191185, 0.7070769635628887, 0.8657638011235527, 11867000000, 
-0.16514223089502156, 0.7179088411371951, 0.8652845305414562, 11872000000, 
-0.19764628312769025, 0.7182577492885754, 0.8650163789562463, 11877000000, 
-0.1833630071107941, 0.6919981102893884, 0.8644221265978626, 11882000000, 
-0.18773213459745547, 0.7335950050476068, 0.8639196036064771, 11887000000, 
-0.21714642612226967, 0.7399303950695305, 0.8633295303719882, 11892000000, 
-0.2119165298528907, 0.7640603009750109, 0.8626728142024407, 11897000000, 
-0.21933920512878943, 0.7455867655835945, 0.8624573328839252, 11902000000, 
-0.26024478800084533, 0.7481065200131682, 0.8617150185075386, 11907000000, 
-0.26035778025804607, 0.7749793951567621, 0.8612952970447812, 11912000000, 
-0.2382191301836945, 0.7925432324107707, 0.860914062643296, 11917000000, 
-0.25954048022650317, 0.8020376803655199, 0.8600454534419489, 11922000000, 
-0.25719516193283704, 0.8296760992179978, 0.8593507883603628, 11927000000, 
-0.25000599227751713, 0.7889944763217048, 0.8592273293947618, 11932000000, 
-0.2953284507801475, 0.7915778229909652, 0.8584432062886267, 11937000000, 
-0.284922641935466, 0.8179186079239142, 0.8582036968307342, 11942000000, 
-0.26571318053088944, 0.8275369833653833, 0.8571231598585571, 11947000000, 
-0.3029815445210828, 0.8093778085002103, 0.8570275444179115, 11952000000, 
-0.2987578845703994, 0.8379112587975183, 0.8564364241314889, 11957000000, 
-0.2878145247898934, 0.8423057312606681, 0.8554648941059529, 11962000000, 
-0.32745760077471575, 0.9109628995502222, 0.85488347979936, 11967000000, 
-0.3390786978030025, 0.8632775990256437, 0.8542078641521633, 11972000000, 
-0.37419464144338477, 0.8428424504269619, 0.8543713323585825, 11977000000, 
-0.3416770414735304, 0.8726701940105814, 0.8535761319694997, 11982000000, 
-0.3419099850899123, 0.8577787205652094, 0.8533499736597903, 11987000000, 
-0.3771351818169295, 0.9054200001638593, 0.8518782892209461, 11992000000, 
-0.3375770292717814, 0.9273523014639211, 0.8518555534489958, 11997000000, 
-0.37372719519347214, 0.8709514540900396, 0.8513248483165664, 12002000000, 
-0.40793218871678555, 0.9305360905990222, 0.8504966870002143, 12007000000, 
-4.718833566238156, 8.147169302786487, 0.830514390713756, 12012000000, 
3.0613034176746696, -6.401224240260627, 0.7748632239617425, 12017000000, 
-30.28615766383864, 16.98449159532985, 0.6936295496692297, 12022000000, 
6.923214916346369, -18.54279117063999, 0.6535969806516901, 12027000000, 
-10.037499822278985, 14.838785011079754, 0.5965845706847599, 12032000000, 
16.038748300085206, -23.44105388398497, 0.5853494833269711, 12037000000, 
-5.201795224927949, 8.264726942296774, 0.5383054597748609, 12042000000, 
17.469475807007942, -4.800251504500135, 0.5373724901228232, 12047000000, 
32.94859604065632, -1.5456656125458728, 0.5527692744480212, 12053000000, 
-13.554641714132641, 5.086418881646561, 0.5463927681168086, 12058000000, 
-4.190106152580352, 1.7340088969998022, 0.5440118726966727, 12063000000, 
-1.2616720137134543, 0.8574668340322666, 0.5432248296263253, 12068000000, 
-0.5144402966162887, 0.6486358848174727, 0.5428960959484704, 12073000000, 
-0.3292024772702542, 0.6048769694717324, 0.5422668093048241, 12080000000, 
-0.3251897057023, 0.6262815448529144, 0.5420338068329261, 12085000000, 
-0.31856879516036973, 0.58894356833345, 0.5410715939293299, 12090000000, 
-0.3144573505331035, 0.6086839995658102, 0.5414240613779124, 12095000000, 
-0.3298194892564499, 0.5807838535143973, 0.5402636217273623, 12100000000, 
-0.32486550985229923, 0.5632192172946575, 0.5400747276960431, 12105000000, 
-0.3606394571550714, 0.5442589962326226, 0.5394368772528011, 12110000000, 
-0.34688202146011604, 0.5284811019864446, 0.5392811267705973, 12115000000, 
-0.3535538991030749, 0.4877949603652731, 0.5384428181553546, 12120000000, 
-0.33633257377732995, 0.4730918775968921, 0.5384117118151512, 12125000000, 
-0.340888059417654, 0.4648532250533286, 0.5382662189099193, 12130000000, 
-0.3433558984399781, 0.4218968757443672, 0.5376543880374408, 12135000000, 
-0.3165402022243424, 0.4168650372364524, 0.5371424912245915, 12140000000, 
-0.30256068666884156, 0.40256158844338685, 0.5364576560984969, 12145000000, 
-0.3073913776630263, 0.3526776711152922, 0.5365699935848536, 12150000000, 
-0.32502497060333696, 0.31926826096615746, 0.5359140289532021, 12155000000, 
-0.27885097557746463, 0.3415361414712329, 0.5354950008920828, 12160000000, 
-0.32066107220041584, 0.28339761386985585, 0.5349951747492631, 12165000000, 
-0.29740869793228447, 0.23689904488260471, 0.5344020700455938, 12170000000, 
-6.244506615237361, 0.2267118136415835, 0.5627703720128807, 12176000000, 
-2.4312462462999465, 0.26655756903931205, 0.6461377336824357, 12181000000, 
0.11524513071384662, 0.2406284031039916, 0.7342320501604332, 12186000000, 
-0.21033301839612975, 0.16429476618716893, 0.8325504800643417, 12191000000, 
-0.31975292247550435, 0.12477572616539723, 0.9328124258885324, 12196000000, 
-0.3510809982013432, 0.1208124469493867, 1.0280801607088927, 12201000000, 
-0.3219370480731914, 0.09908217882122108, 1.0964796130094345, 12206000000, 
-0.27430930087446315, 0.1038103822798925, 1.169661053728487, 12211000000, 
-0.26953927195928473, 0.07504994330382847, 1.2149385454050419, 12216000000, 
-0.2454769428947544, 0.056725296207971614, 1.266162920089695, 12222000000, 
0.056242227740330136, 0.06044172573154217, 1.2717149501412552, 12227000000, 
-0.2116967428351401, 0.07625298468489246, 1.2615706188600564, 12232000000, 
0.033549647435154185, -0.009980215769561523, 1.248117008036815, 12237000000, 
-0.08370550155348562, -0.03364461504900757, 1.2241238250782245, 12242000000, 
1.7896811111819642, 0.02039184376898138, 1.2127725734279704, 12247000000, 
1.1609763725608842, 0.04367674021629319, 1.2093353748418574, 12252000000, 
-0.8155875527635783, -0.04695570286362054, 1.2090233552356235, 12257000000, 
-0.43137861551002343, -0.07320619611976452, 1.2083678243424505, 12262000000, 
-0.30197117764540515, -0.07098463665968574, 1.2080927492156468, 12268000000, 
-0.2525908436949602, -0.11320237475508317, 1.2075441391708546, 12273000000, 
-0.27134099029820985, -0.16011298642422123, 1.2072925288751055, 12278000000, 
-0.25323395194115994, -0.1775773210756612, 1.2062999693729843, 12283000000, 
-0.20948476955341344, -0.20944530739738543, 1.205659426000648, 12288000000, 
-0.25643822695424345, -0.18691641962279137, 1.2048709315779187, 12293000000, 
-0.25136765803357236, -0.2481410610560919, 1.2046631927385778, 12298000000, 
-0.27073099901351066, -0.2794188756352949, 1.2039183595620326, 12303000000, 
-0.2683301130862857, -0.2727197472590322, 1.2028977843760276, 12309000000, 
-0.2492513898894773, -0.2927633161595342, 1.2022105516371464, 12314000000, 
-0.25683696857346616, -0.3194811077628861, 1.2020950385774711, 12319000000, 
-0.23018544141238095, -0.34963520030405315, 1.2011745553811304, 12324000000, 
-0.23467432012445108, -0.35831225755480905, 1.2008527119135517, 12329000000, 
-0.23957183298476367, -0.37233865521016685, 1.2000809547128608, 12334000000, 
-0.27634092706549124, -0.41358274333408807, 1.1994780854046354, 12339000000, 
-0.24207016761510514, -0.41872367384206416, 1.199005167142534, 12344000000, 
-0.2423816327484766, -0.4319068775549441, 1.198162424833441, 12349000000, 
-0.23044393415132286, -0.41918805668431686, 1.1977973920734506, 12354000000, 
-0.24651910362372131, -0.4628719961413691, 1.1969246795441748, 12359000000, 
-0.26042724206133644, -0.48626917485661125, 1.1963777258462507, 12364000000, 
-0.24699494937160735, -0.4790777702649536, 1.195801716213493, 12369000000, 
-0.26698419153646286, -0.5079617283684433, 1.195452369324628, 12374000000, 
-0.23526890964858657, -0.5593164146886938, 1.1943423935654487, 12379000000, 
-0.2655720979168904, -0.5865729641642645, 1.1935226332156061, 12389000000, 
-0.2313960671619934, -0.5857393231708837, 1.19259409024447, 12394000000, 
-0.26609492355515146, -0.6342502894813873, 1.1914635067496153, 12404000000, 
-0.24286907768372448, -0.6700804532565254, 1.1906480134791104, 12409000000, 
-0.2699341216060398, -0.6642582644548982, 1.1901819890999064, 12414000000, 
-0.25778402999957756, -0.6644953549180029, 1.1897236890825276, 12419000000, 
-0.27955003124646266, -0.6796718114204774, 1.189039162457855, 12424000000, 
-0.26181805851206014, -0.678789679172666, 1.1877786042975735, 12429000000, 
-0.26177052438936316, -0.7155838235147889, 1.187995247228289, 12434000000, 
-0.25412854740904633, -0.7125984172934737, 1.187130862256959, 12439000000, 
-0.2471175793699958, -0.7527627060102874, 1.1864236750857087, 12444000000, 
-0.2642953198649751, -0.7407691611893261, 1.1860209037179867, 12449000000, 
-0.293604514440895, -0.7683235396342017, 1.1852032028859798, 12454000000, 
-0.2292069386085268, -0.8002816865521047, 1.1847595414186947, 12459000000, 
-0.28660682078485866, -0.7894880797025913, 1.1842247857813109, 12464000000, 
-0.24961462276147361, -0.8211528048879465, 1.183490900174029, 12469000000, 
-0.272746839863984, -0.8084235846405492, 1.1828555009459691, 12474000000, 
-0.24447273863654861, -0.8173425748517599, 1.1824368377568113, 12479000000, 
-0.26857738966885, -0.8274848292300062, 1.1817264578890512, 12484000000, 
-0.2756334025546372, -0.8474221499033129, 1.181276872740598, 12489000000, 
-0.294413123933438, -0.8804035664441116, 1.1803896258868303, 12494000000, 
-0.2862902003515637, -0.8832011280239315, 1.1802491270535773, 12499000000, 
-0.26992285610372274, -0.8920799809972889, 1.1794148637357615, 12504000000, 
-0.2940964823704826, -0.9093792394382807, 1.1785261873790986, 12509000000, 
-0.29447439581311224, -0.8924361400851073, 1.1776765138670287, 12514000000, 
-0.25241689128461275, -0.9467600136160718, 1.1773927783629492, 12519000000, 
-0.296588730701065, -0.9230495138697912, 1.1767319714066178, 12524000000, 
-0.29217466811934373, -0.9769507576823838, 1.1763003371829839, 12529000000, 
-0.30638260589488225, -0.9610679522422477, 1.1757033835570943, 12534000000, 
-0.32686997138794577, -0.9557798491242859, 1.1750648578904552, 12539000000, 
-0.28163422943853716, -0.9833777045173807, 1.174459097644875, 12544000000, 
-0.2647143342131078, -1.0028798278536581, 1.174068832063728, 12549000000, 
-0.33497129083684574, -1.0054604606389135, 1.173343396678073, 12554000000, 
-0.3270059567421925, -0.9992335732304067, 1.1726696509504604, 12559000000, 
-0.2904053900415938, -1.0481956079519468, 1.1721183710128502, 12564000000, 
-0.31320936953259837, -1.0007394479299248, 1.171864928873999, 12569000000, 
-0.33285192876895886, -1.0271486120421933, 1.1711677909057263, 12574000000, 
-0.3173465273326669, -1.047943980452646, 1.1706509610366116, 12579000000, 
-0.31028717131786915, -1.0867814053276872, 1.169616839245302, 12584000000, 
-0.334253852329309, -1.0383053755059515, 1.1690463237034059, 12589000000, 
-0.31134292331226804, -1.0477545652979787, 1.1685067590655882, 12594000000, 
-0.32982380873396017, -1.0882418968342922, 1.1680254520831155, 12599000000, 
-0.30642916691595046, -1.0698173802065647, 1.1675968307767002, 12604000000, 
-0.3138455346755236, -1.0969912190473963, 1.1667705742124979, 12609000000, 
-0.3108432150745452, -1.1145985650385555, 1.1666464657984141, 12616000000, 
-0.342639001486281, -1.0868389975657649, 1.165795684686715, 12621000000, 
-0.3372979490218014, -1.0927896367351344, 1.164823118296651, 12626000000, 
-0.3621260252909055, -1.141464009851142, 1.1643118206439056, 12631000000, 
-0.34935576888995, -1.1044207058617972, 1.1637972594157655, 12636000000, 
-0.35272677704849287, -1.1229224770217103, 1.163243856153805, 12641000000, 
-0.34595326870452997, -1.162078461327035, 1.1626964451125585, 12646000000, 
-0.33092084294342494, -1.136587314159084, 1.1621875679290232, 12651000000, 
-0.33914414447453906, -1.1259244957786299, 1.1616664963818806, 12656000000, 
-0.345276353720517, -1.1383668640186821, 1.1609876569831148, 12661000000, 
-0.3595241452693016, -1.1628081448518262, 1.1606706712488353, 12666000000, 
-0.3594755774765995, -1.1483080549905482, 1.1598439819596085, 12671000000, 
-0.3562485730307925, -1.1638540930822148, 1.1590707948610415, 12676000000, 
-0.3495015714739036, -1.1607367687449566, 1.1584954671456105, 12682000000, 
-0.33730062410921013, -1.1838590784524228, 1.1576819472664328, 12688000000, 
-0.36079486365014524, -1.14819112949585, 1.1572036803026555, 12693000000, 
-0.4017525038292662, -1.1761244263182506, 1.156968316981694, 12698000000, 
-0.3843935955038043, -1.1775939572079095, 1.1562430278681786, 12703000000, 
-0.3758535546532713, -1.1979355426736866, 1.1558553046997133, 12708000000, 
-0.3823670360950482, -1.1986607446335067, 1.155363059552005, 12713000000, 
-0.4076154399608529, -1.1948567981656417, 1.1545460644167254, 12718000000, 
-0.3916090395522077, -1.1895284800595054, 1.1544111707417348, 12723000000, 
-0.4215070801508172, -1.1981199161228786, 1.1536393453122054, 12728000000, 
-0.3887909525256402, -1.1817424065188016, 1.1530201921565555, 12733000000, 
-0.36051434779666874, -1.1867051199236947, 1.1520474290343732, 12740000000, 
-0.3921178835006481, -1.1946965936172245, 1.1515427931369409, 12745000000, 
-0.38285292694202067, -1.2038096308842896, 1.1509270942246628, 12750000000, 
-0.38584983813048235, -1.2102313659218928, 1.1503533857967512, 12755000000, 
-0.4049707894426258, -1.1919842696834628, 1.1499223355946766, 12760000000, 
-0.3602414134086801, -1.1878136586521173, 1.149253478553523, 12765000000, 
-0.43181293327345954, -1.2000932947111984, 1.1485899391602494, 12770000000, 
-0.44247841683500105, -1.1871848218456886, 1.1482145615942692, 12775000000, 
-0.4153399333610968, -1.2049106516396975, 1.147559751562506, 12780000000, 
-0.4013086165641383, -1.1974658641497191, 1.1472917625734589, 12785000000, 
-0.4500056214609646, -1.2040713915430565, 1.1466137553951874, 12790000000, 
-0.4352010868194721, -1.2442654313546273, 1.1464286535885022, 12795000000, 
-0.4132797139649997, -1.1964631513636361, 1.1456121743720649, 12800000000, 
-0.4587135901705072, -1.181538724092592, 1.1448630852084152, 12805000000, 
-0.46006177009746946, -1.178709981066744, 1.1441684550808207, 12810000000, 
-0.426523419410461, -1.1521662130344863, 1.1440200330084438, 12815000000, 
-0.4321025762146115, -1.1724034301015038, 1.143599007262573, 12821000000, 
-0.44485153327093035, -1.185223238658357, 1.1427160756606907, 12826000000, 
-0.4697115353437601, -1.2000627375553503, 1.1420353160386787, 12831000000, 
-0.43230124785557716, -1.1998304628627807, 1.141535689492762, 12836000000, 
-0.45918915205910826, -1.1874147510059712, 1.1408889442226042, 12841000000, 
-0.4215733133697884, -1.1803522002513138, 1.14000507982725, 12846000000, 
-0.4727243317369403, -1.1625057128453735, 1.1402135090546217, 12851000000, 
-0.44622421968702414, -1.1565235373673985, 1.1393576983806704, 12856000000, 
-0.44953290398769113, -1.1837101921581696, 1.1390322924551597, 12861000000, 
-0.43354953303827126, -1.162023605630432, 1.1385111630922462, 12866000000, 
-0.46994094533768044, -1.1333825011036, 1.1376485861590937, 12871000000, 
-0.4318700448096693, -1.1680223831855747, 1.1370823975436972, 12876000000, 
-0.4767541273521437, -1.1410922447664793, 1.1366479483248824, 12881000000, 
-0.4532753834443386, -1.134031233930166, 1.1363683616390996, 12886000000, 
-0.4596028453816281, -1.148867282471166, 1.1356541891364327, 12891000000, 
-0.4500468325928772, -1.1406238596408864, 1.135057820946314, 12896000000, 
-0.4341285879243843, -1.1049804786650266, 1.13483785747359, 12901000000, 
-0.47820010642269023, -1.1028583841876456, 1.1341294920023148, 12906000000, 
-0.4687065497677831, -1.1233826070097093, 1.133154696031285, 12911000000, 
-0.4965787042920986, -1.137896470409303, 1.133234203113132, 12916000000, 
-0.47008112056141266, -1.0944833266534428, 1.132272862727187, 12922000000, 
-0.44928825626990665, -1.101153483672174, 1.1315033026174204, 12927000000, 
-0.4488247067773859, -1.1095057001497832, 1.1313490579295205, 12932000000, 
-0.4722147626995618, -1.0855386553220472, 1.1301560553342078, 12937000000, 
-0.46444675396450463, -1.0491423119940624, 1.1300237534867088, 12942000000, 
-0.4437476555138267, -1.053551220742446, 1.1291135197761224, 12947000000, 
-0.4466985517479152, -1.0613441654451925, 1.1287517804759197, 12952000000, 
-0.47885262276686236, -1.0544577905632009, 1.1286183029472059, 12957000000, 
-0.49571735269246286, -1.0508009744365352, 1.1278117472446372, 12962000000, 
-0.4675533749365588, -1.047510654688827, 1.1275241184306362, 12967000000, 
-0.4750072023161612, -1.0571804051265972, 1.1273915482742711, 12972000000, 
-0.4477352284801345, -1.0313683366486868, 1.1265090183805682, 12977000000, 
-0.4567410787772007, -1.028302649725269, 1.125977519113781, 12982000000, 
-0.4828462551185654, -1.0132386665213335, 1.1252282117976806, 12987000000, 
-0.45169588012005607, -1.0084593526705505, 1.1249860562206107, 12992000000, 
-0.4631982042596903, -0.9761050611843898, 1.1243760964174805, 12997000000, 
-0.48132016415798073, -0.9440690075035665, 1.1239588166636103, 13002000000, 
-0.48637425957440394, -0.9768998214563575, 1.1232453358130352, 13007000000, 
-0.4517317142390635, -0.9464137315911774, 1.1224420621214537, 13012000000, 
-0.4533352861580021, -0.9511411438317295, 1.1220220383964798, 13017000000, 
-0.47807921993694563, -0.9210775701247487, 1.1217328248099965, 13022000000, 
-0.4669148749521885, -0.9217026411919608, 1.1211127901131117, 13027000000, 
-0.45694517066717477, -0.8931764999428482, 1.1208073021089051, 13032000000, 
-0.4911653471751424, -0.9189146920577035, 1.1203002890525366, 13037000000, 
-0.4795185913109036, -0.9031668802696171, 1.1199517299370638, 13042000000, 
-0.47774266936680815, -0.8793625198813485, 1.1194869335663837, 13047000000, 
-0.47997468346964967, -0.9041720163332497, 1.1189765910091567, 13052000000, 
-0.4675212208652585, -0.8402367606057172, 1.1183599360079355, 13057000000, 
-0.4625236363765796, -0.8413446821562813, 1.1173697665510116, 13062000000, 
-0.4397144424260199, -0.8309996156317873, 1.1172537817241512, 13067000000, 
-0.4602132415892563, -0.8267650534393391, 1.1170360623336728, 13072000000, 
-0.4782477096751166, -0.8180542674371031, 1.1160371739446522, 13077000000, 
-0.4520006961491218, -0.7815811733715096, 1.115727913843803, 13082000000, 
-0.42820184910712006, -0.7893205636297218, 1.115288458098445, 13087000000, 
-0.4477586451237028, -0.7775943432036367, 1.114709015339107, 13093000000, 
-0.38794090802311487, -0.7738615991080192, 1.114425667730401, 13098000000, 
-0.46689726479088656, -0.749373904021382, 1.1134244929945356, 13103000000, 
-0.4383591830970507, -0.70012869497236, 1.1132000421054955, 13108000000, 
-0.44850799602516445, -0.7405894206903225, 1.1130660997569475, 13113000000, 
-0.46393014688301126, -0.7037635508142335, 1.1123212177271338, 13118000000, 
-0.4356036012038694, -0.6908818855032465, 1.1115517578475258, 13123000000, 
-0.43781968015871164, -0.647174923117877, 1.111129168243473, 13129000000, 
-0.4197663041922075, -0.6660756637177625, 1.1109829851917281, 13134000000, 
-0.4303313210549247, -0.6400961528288391, 1.110215750323439, 13139000000, 
-0.4400325526995612, -0.6331682974827827, 1.1097550232908515, 13144000000, 
-0.42514750384622907, -0.6178680297213018, 1.1091665057363373, 13149000000, 
-0.43623770066546547, -0.5935758655922375, 1.1087195166478037, 13154000000, 
-0.3874187621877843, -0.5886279832611157, 1.1083911519236045, 13159000000, 
-0.4666800724895629, -0.5738710917981077, 1.1079583434755835, 13164000000, 
-0.3987766462004356, -0.5588911634389423, 1.107374852784027, 13169000000, 
-0.43147339927312733, -0.5429669190284704, 1.1065612400164582, 13175000000, 
-0.39943192305073605, -0.5019428096791202, 1.1065963911993717, 13180000000, 
-0.4044531408828312, -0.497160140407166, 1.105976625989275, 13185000000, 
-0.3992333697358072, -0.501280379950141, 1.105077997997226, 13190000000, 
-0.39748987819656745, -0.47049480342659405, 1.1050157899817077, 13195000000, 
-0.40874404702777395, -0.42016210943230675, 1.104534169199643, 13200000000, 
-0.3770829412079719, -0.41842524930306835, 1.1036901568478354, 13205000000, 
-0.38806821237925476, -0.4355109272190125, 1.1032727213295697, 13210000000, 
-0.3323805062529749, -0.3978813825016066, 1.1032518723110987, 13215000000, 
-0.3601804527095352, -0.37088904768638054, 1.1022187244305475, 13220000000, 
-0.35555893288152257, -0.362745122123229, 1.1017026103999414, 13225000000, 
-0.37826148240669905, -0.34476991539318297, 1.1015702848640851, 13230000000, 
-0.33694118974407633, -0.3184018662946232, 1.1010978512925935, 13235000000, 
-0.3487688174815441, -0.30528472191032296, 1.100418305216496, 13240000000, 
-0.3365234097706508, -0.28648978676241343, 1.0998274331906757, 13246000000, 
-0.33433605246164044, -0.260755312150616, 1.099113955974586, 13251000000, 
-0.32994657238305836, -0.23537875184920837, 1.0990075555456402, 13256000000, 
-0.3191463535375891, -0.2323131573407113, 1.098608616742654, 13261000000, 
-0.3446254659308115, -0.2059430739987906, 1.0979771492325836, 13266000000, 
-0.30503493448678837, -0.13407358318440507, 1.0974293038629273, 13273000000, 
-0.31311167757267167, -0.1518589024644798, 1.0967128093662255, 13278000000, 
-0.3249397681379711, -0.13632785321306737, 1.0962849636692573, 13283000000, 
-0.30521898075840076, -0.13088029851267696, 1.0955398437941912, 13288000000, 
-0.26120423406355675, -0.08340086990344883, 1.0954234661802902, 13293000000, 
-0.38905573504180874, 0.010490363143261565, 1.0949054447898063, 13298000000, 
-0.42327467318805323, -0.08427099553286373, 1.0931761113692149, 13303000000, 
-1.7326017840578911, -0.04958403753278992, 1.084299235473026, 13308000000, 
-0.3246545975873433, -0.07778096664002611, 1.0710964679506323, 13313000000, 
-0.3285214633601311, -0.02095263910136117, 1.0545569308422869, 13318000000, 
-0.27847428966505056, 0.006276404179963458, 1.037052158791752, 13323000000, 
-0.2542203388150973, 0.05219532797472729, 1.0194499287848535, 13328000000, 
-0.22951479871063107, 0.04788020046416953, 1.0021105417451077, 13333000000, 
-0.20782227615933394, 0.08224363425282046, 0.9868624594348453, 13338000000, 
-0.22903645895543423, 0.0669236034205986, 0.974221908247176, 13343000000, 
-0.1872590502996097, 0.11335743119319334, 0.9647362617493564, 13348000000, 
-0.15907973827398025, 0.14985663321762957, 0.9586356226586136, 13353000000, 
-0.16905096099966474, 0.14096927359696132, 0.9567244435576617, 13358000000, 
-0.24595680801088718, 0.139915442665763, 0.957536491141766, 13363000000, 
-0.21170356578825522, 0.17895531855430302, 0.9627776983793213, 13368000000, 
0.1038477362972394, 0.2900613311916038, 0.9667431931592086, 13373000000, 
-0.13240072014723353, 0.17854212447174048, 0.9698558471952903, 13378000000, 
-0.18097872336730908, 0.21467643586042917, 0.971284720199198, 13383000000, 
-0.44857817708298436, 0.2052329663076439, 0.9745868213796102, 13388000000, 
0.7119190027235266, 0.18518143990083868, 0.9765261471449679, 13393000000, 
-0.17473102150078443, 0.24212271062791138, 0.9757732775794963, 13399000000, 
-0.17505910390048515, 0.2886943792215006, 0.9746185943167374, 13405000000, 
-0.09588613327195347, 0.3048977955339948, 0.9739440372861369, 13410000000, 
-0.09401761535107168, 0.33021702616341503, 0.9732809087704112, 13415000000, 
-0.07756017913440519, 0.3653259080908825, 0.9730590666522201, 13420000000, 
-0.05276138150556425, 0.39049005565031186, 0.9722822663176138, 13425000000, 
-0.07196032795548447, 0.40393920501890956, 0.9723769816893918, 13430000000, 
-0.046921946939991084, 0.3992471021497192, 0.9715385350055532, 13435000000, 
-0.0558272186124093, 0.42943608751582324, 0.9708659647455109, 13440000000, 
-0.015089736343726259, 0.44918515897397615, 0.969881246814654, 13445000000, 
-0.043744585130296956, 0.45746602103211875, 0.9694714608524634, 13450000000, 
-0.03493389596435954, 0.47506997821889985, 0.9693899414690113, 13455000000, 
-0.00731270317330184, 0.5047359236344008, 0.9686483069748856, 13460000000, 
0.03422346214953305, 0.48163416689715727, 0.9680274896333735, 13465000000, 
-0.011131397024168571, 0.5397203639695928, 0.9672690330018576, 13470000000, 
0.041409306741035594, 0.520643355840254, 0.9666945470674349, 13475000000, 
0.029895144786295208, 0.5398660587809402, 0.9660718012294202, 13480000000, 
0.04033512677220831, 0.5272317868386446, 0.965617255983738, 13485000000, 
0.08916326193404331, 0.5609169651422766, 0.9654956663101995, 13490000000, 
0.07072094042029252, 0.5706536336410539, 0.9646463860029294, 13495000000, 
0.10496029766929502, 0.5904684728512821, 0.9643378815233441, 13500000000, 
0.11977370589533351, 0.5931315279519666, 0.9633614065788592, 13505000000, 
0.10655093329446498, 0.6100674904189872, 0.9628856420581818, 13510000000, 
0.09671888111991656, 0.6228176527865534, 0.9625174878718106, 13515000000, 
0.1082183388289355, 0.625621983903921, 0.962042573414145, 13520000000, 
0.13293186973580967, 0.6585188315817129, 0.961717784086462, 13525000000, 
0.1472963538227389, 0.6366446785162101, 0.9614678087379431, 13530000000, 
0.1617231771787197, 0.6402473471428206, 0.9604248192454796, 13535000000, 
0.16863750903590807, 0.6605952431612973, 0.9602249018389457, 13540000000, 
0.13169995617186767, 0.7044113935070606, 0.9597622733508224, 13545000000, 
0.18874918114855774, 0.6409495279158707, 0.9594497949614004, 13550000000, 
0.2161267511100115, 0.7095322193681338, 0.9586824342267344, 13555000000, 
0.22588436396122308, 0.7358445492012747, 0.9587938254216151, 13560000000, 
0.2310613123206988, 0.7004192925835955, 0.9580307579292487, 13565000000, 
0.2675585730044829, 0.7551994789158353, 0.9573358181159349, 13570000000, 
0.23279253280869694, 0.726533295085198, 0.9575247099709808, 13575000000, 
0.28246448474959185, 0.7244974640804354, 0.9567927382510968, 13580000000, 
0.287276201731859, 0.7575135535927331, 0.9561278351928458, 13585000000, 
0.2869014437965433, 0.7615347831120767, 0.9560382534191103, 13590000000, 
0.3214930031295099, 0.7630772763973441, 0.9557040469629816, 13595000000, 
0.31419038849125214, 0.7522358767903176, 0.954900949987512, 13600000000, 
0.3116464307063701, 0.808789738263668, 0.9548280325180654, 13605000000, 
0.3573075725039876, 0.796891005447129, 0.9543603843134574, 13610000000, 
0.3601340102266398, 0.7731674730967855, 0.9537353627280312, 13615000000, 
0.3775191757519196, 0.8101868160697338, 0.9536174676113814, 13620000000, 
0.38226459203331, 0.782897254859742, 0.9529319804501606, 13625000000, 
0.39409837372698997, 0.8278318824899039, 0.9524640306322307, 13630000000, 
0.3983824165534315, 0.8228797684081837, 0.9526330721110788, 13635000000, 
0.4208644034745078, 0.7964243855941628, 0.9525183503538348, 13640000000, 
0.4692600283348382, 0.8151639762830082, 0.9516074977716493, 13645000000, 
0.44932496001871514, 0.8240884055715557, 0.9511362630048107, 13650000000, 
0.437412798395166, 0.848768482628782, 0.9509382666114108, 13655000000, 
0.4466049088907561, 0.8393882855190777, 0.9508205324981764, 13661000000, 
0.29231533989013875, 0.9999196787477798, 0.952814306256837, 13666000000, 
0.682401023081706, 0.9948215181784269, 0.955223462683061, 13671000000, 
0.5812238190168197, 0.9675985738468438, 0.9560775288521819, 13676000000, 
0.5417359440645884, 0.9316477172666493, 0.9573445267160577, 13681000000, 
0.5489316100078693, 0.8826805925128538, 0.9588775539162585, 13686000000, 
0.5394400245395801, 0.8706020073386718, 0.9605973133008092, 13691000000, 
0.584030791961208, 0.8830994593098973, 0.9613921917076719, 13696000000, 
0.6068280883820186, 0.8514803728094302, 0.9631443727550512, 13701000000, 
0.5949436245849641, 0.872167785775828, 0.9644220540301083, 13706000000, 
0.621483477411354, 0.8496096939717492, 0.964854313517801, 13711000000, 
0.5979265709235724, 0.8754753329508974, 0.9670293116941328, 13716000000, 
0.5851677696616542, 0.8339909740389115, 0.9689844909039731, 13722000000, 
0.6405899098635313, 0.8302937030674236, 0.970178017794806, 13727000000, 
0.6217228963094328, 0.9002005269719009, 0.9715019722876859, 13732000000, 
0.6570612456740691, 0.8726283198114142, 0.9728738226769712, 13738000000, 
0.6907396614848342, 0.8643951016463596, 0.9741376896895731, 13743000000, 
0.7015090773513164, 0.8813793567378366, 0.9755488221591443, 13748000000, 
0.7063471856493011, 0.8681895276801697, 0.9769263770482354, 13753000000, 
0.6889086793215332, 0.9113336686330022, 0.9785077298503786, 13758000000, 
0.8389407959599252, 0.6975935279517285, 0.9801007002631114, 13763000000, 
1.0256997849029486, 0.9321977406297266, 0.9821841545589959, 13768000000, 
1.0685803165598489, 1.0027325245161673, 0.9858785837822304, 13773000000, 
1.1212922194183075, 0.9325072872826483, 0.9882492996695297, 13778000000, 
1.1820304586395862, 0.8336187787437502, 0.989846245940248, 13783000000, 
1.0971309257032282, 0.8603262983667362, 0.9932242835171986, 13788000000, 
1.1090808931527503, 0.8638535331453419, 0.9969340192991225, 13793000000, 
1.0526147378694415, 0.8560903683280404, 0.9986977416342769, 13798000000, 
1.0599486015667823, 0.7976635683434963, 1.0013908273831897, 13803000000, 
1.1040862835959593, 0.781802611856758, 1.0036879856924683, 13808000000, 
-18.225554421012486, 13.659080813829485, 0.9903195592473486, 13813000000, 
21.487115017546284, -11.393786549058985, 1.0023583808494358, 13818000000, 
-3.516136557893062, 2.8195839681476325, 1.0022139444918527, 13823000000, 
-0.5043760422785974, 1.3119769958371508, 1.0033598175850054, 13828000000, 
-16.170006557462273, 11.999741499834993, 0.9918530534493911, 13834000000, 
21.419605505317673, -10.98398396871465, 1.0039680976167435, 13839000000, 
-3.94710999829354, 2.9412472728826997, 1.0039188650040727, 13845000000, 
2.0068586062382767, 0.6055057724707957, 1.003543866305387, 13854000000, 
-2.375532442805743, 1.9561477372366853, 1.0031850066912757, 13859000000, 
0.2816130328171977, 1.8969671848332017, 1.0010113545763475, 13864000000, 
1.3187598947172023, -0.9073807155619823, 1.003019431034212, 13869000000, 
-55.4590611369978, 34.50935551264221, 0.9948928475061941, 13874000000, 
1.0115634927630643, 0.68692914351743, 0.9954305779652204, 13879000000, 
8.334656063496777, -3.585054430181917, 1.0016994595935256, 13884000000, 
-11.861421187343543, 7.373831036585955, 0.9932361277390669, 13889000000, 
9.031278013209011, -4.818504459531637, 0.9992284386927929, 13894000000, 
-10.9303161570039, 7.970148905424747, 0.9912013761520302, 13899000000, 
12.396350153792675, -6.634677852106248, 0.9982977433514849, 13904000000, 
-11.27902593331262, 9.432349188255348, 0.9916810005856315, 13909000000, 
13.061623613207425, -7.631120192260808, 0.9976669880150717, 13914000000, 
-1.3850171959012714, 2.4949347949000757, 0.9944664740976689, 13919000000, 
-6.552753269128622, 5.751714089626709, 0.9894427066814953, 13924000000, 
7.167094728180851, -3.6779210886601335, 0.9927673996756563, 13930000000, 
-2.4622299007133797, 2.9374720007240054, 0.9897720508428063, 13935000000, 
8.385408704660641, -4.098877560798737, 0.993609243805809, 13940000000, 
-2.7815353478032288, -0.4532062344669512, 0.9937666001107563, 13945000000, 
-8.768548997919671, 7.704081109064022, 0.9827281300550309, 13952000000, 
-1.9192068920419023, 1.612760697990996, 0.98205217783241, 13957000000, 
-1.2661687793378287, 5.584275599173852, 0.978987507526187, 13962000000, 
2.1007488151817655, -0.39774716451844766, 0.9793227234062665, 13967000000, 
0.8250784943339304, 0.9380483458925937, 0.9774170983379814, 13972000000, 
2.081181187508533, 0.24723584149021194, 0.9778858721935345, 13977000000, 
3.0521716398535426, -0.7248822188703712, 0.9782193155297476, 13982000000, 
-2.0919361477058365, 2.0901327380693266, 0.9751700253569787, 13987000000, 
2.5792129889767024, 0.06861628809899546, 0.9758034235686897, 13992000000, 
3.260533719788434, -1.1715141596981253, 0.9759891898463441, 13997000000, 
-2.6112862683987927, 2.4795110760171335, 0.9725815939368826, 14002000000, 
2.546777015970555, -0.10767219072285236, 0.9727487991829745, 14007000000, 
3.242198889923713, -1.2526433360861393, 0.973068099707784, 14012000000, 
-1.9708995606384587, 2.1878338687956034, 0.9695406711684554, 14018000000, 
2.6053671190543195, -0.2989754614641761, 0.9689583774822663, 14023000000, 
3.310641728884173, -1.4341895137564553, 0.970031365451058, 14028000000, 
-2.9524745704021726, 3.2944641121944653, 0.9659107195957507, 14033000000, 
2.2757566087462338, -0.11744041124255919, 0.96624641451945, 14038000000, 
3.1155608342999663, -1.3319350505441292, 0.9666447320588252, 14044000000, 
3.702321776029259, -2.504239325762375, 0.9675915554209026, 14049000000, 
-3.99323308625312, 4.807820652603313, 0.9614661325842819, 14055000000, 
2.3670989248930256, -0.520498989797935, 0.9611536131394322, 14060000000, 
3.137814922612273, -1.443783257467696, 0.9620228864191118, 14065000000, 
3.6856156489846676, -2.4295013161969394, 0.9633416279600097, 14070000000, 
4.237560814612416, -3.2989162921453077, 0.964555967411615, 14075000000, 
-7.882939160800749, 9.471183319223819, 0.9556407968646274, 14080000000, 
2.577129801554306, -0.818552286726446, 0.9556012102626893, 14085000000, 
3.267695664310661, -1.7228328646451514, 0.9561489102897349, 14090000000, 
3.759868587997087, -2.7482547474556487, 0.9576575731579411, 14095000000, 
4.320566885323934, -3.646305163306909, 0.9592897669875956, 14100000000, 
-12.308014452549148, 14.196305763245787, 0.9481202063007972, 14105000000, 
1.9279524267357484, -0.31172213948303273, 0.9480917378838478, 14110000000, 
2.971352551194399, -1.2568436459919092, 0.9487379083755206, 14115000000, 
3.5442243861037372, -2.3164139971769484, 0.9494584829727413, 14120000000, 
3.9940937225798288, -3.3386920262081112, 0.9512594465418844, 14125000000, 
4.441253304273965, -4.02824053293748, 0.9527711027115313, 14130000000, 
3.120498431752941, -2.7754052807282488, 0.953186411450483, 14135000000, 
-8.028756514198392, 10.21889199988338, 0.9413180175676152, 14140000000, 
2.4065336419173358, -0.607640784613729, 0.9416958393528713, 14145000000, 
3.226153119117504, -1.5861523906811061, 0.9427231848134671, 14150000000, 
3.3038253238106132, -2.3049971388689063, 0.9437438956853552, 14155000000, 
1.3704735699449817, -0.822255485971933, 0.9436349178797745, 14160000000, 
-0.23452096699729982, 0.5505318355173033, 0.9433429737970208, 14165000000, 
-0.7689898089645237, 1.213458459296922, 0.9427184873644086, 14170000000, 
-0.566503462054663, 1.2085727034598073, 0.9424495693022514, 14175000000, 
0.055985147672426044, 0.7599439415388255, 0.9420945378048566, 14180000000, 
0.5845811783928683, 2.9854502659012065, 0.9401700193346867, 14185000000, 
2.9838419039377997, -1.0936687227537267, 0.9403421956767302, 14191000000, 
3.3509559066575916, -2.07291324716775, 0.9409373751170916, 14196000000, 
1.891338604668876, -1.2881306458248865, 0.9418924145043684, 14201000000, 
0.08776156104675684, 0.09560520976770585, 0.9414819405161372, 14206000000, 
-0.526907718419624, 0.7099023311550611, 0.941489426125964, 14211000000, 
-0.4600403139282158, 0.8659099859217769, 0.9410294529261407, 14216000000, 
-0.03269882476551664, 0.6070896732802852, 0.9408502189109786, 14221000000, 
0.5791798529810085, 0.2251429629735151, 0.9408598178095816, 14226000000, 
0.935737996060546, -0.06378032237341803, 0.940609716664477, 14231000000, 
1.1005750354822683, -0.17957077811151126, 0.9410579799810012, 14236000000, 
1.051145954922488, -0.2030373106235317, 0.9408192130421787, 14241000000, 
28.38382728491051, -16.504228505211938, 0.9532884457767548, 14246000000, 
1.925759408046546, -0.006058134971045039, 0.9602829443599372, 14251000000, 
0.22504774206279637, 0.7332958303102164, 0.9571682497289564, 14256000000, 
-6.231380651396376, 0.8277264436251748, 0.9567006151355409, 14261000000, 
-7.333606019039802, 0.9612281015893508, 0.9566581286075125, 14266000000, 
20.293793124550817, -3.919890814731748, 0.9424716333889166, 14271000000, 
2.175943775387482, -0.5689536705724599, 0.9375792780017876, 14276000000, 
-2.1680741858396746, 1.8937814209157824, 0.9356332204224264, 14281000000, 
0.6107638542276678, 0.7143647010403731, 0.9324796883300968, 14286000000, 
0.5333140360527743, 0.4974885060078918, 0.9292878943720637, 14291000000, 
7.286422975582042, -4.677003808114949, 0.9224421410290079, 14296000000, 
4.855041792229762, -3.8910628388186623, 0.9165166177212923, 14301000000, 
0.600094658005297, -0.47312549359631945, 0.9128943404087443, 14306000000, 
-5.463249634462224, 5.696120555697037, 0.9127214141183895, 14311000000, 
-2.834708024650196, 2.111107073035598, 0.9111086240562523, 14316000000, 
-0.4205993706308914, 0.6996001541659794, 0.9087395791311275, 14321000000, 
0.7448313956743084, 0.30328446350876825, 0.9056127761605691, 14326000000, 
3.6462165391748615, -0.28957742520089746, 0.9014362825931277, 14331000000, 
5.713355521484314, -5.411159381528554, 0.896327485775319, 14336000000, 
2.5568306863197465, -1.6383488068271825, 0.8920965636577185, 14341000000, 
1.4058662764451586, -0.5638592692834832, 0.8892693566179732, 14346000000, 
0.47246231710755576, 0.7148883270225329, 0.8861224658630616, 14351000000, 
1.0473829452060313, -0.22537846311710283, 0.8833320256038971, 14356000000, 
0.4881851809221554, 0.5857236015959068, 0.8803996778309315, 14361000000, 
0.9265195965921392, -0.19786197000752684, 0.8771991851303774, 14366000000, 
0.80847591750432, -0.05101502773350355, 0.8737715745862427, 14372000000, 
0.5320670044538149, 0.4688124011803491, 0.8710456175626575, 14377000000, 
0.5998737019389294, 0.11974372438879952, 0.8680806923702655, 14382000000, 
0.5846315581190558, 0.16144929031407232, 0.865522262383552, 14388000000, 
0.7409921431769801, -0.09428668146222789, 0.8627050584765648, 14394000000, 
0.6543207504931727, 0.030075507240686132, 0.8588489818413388, 14399000000, 
0.5898965606452886, 0.06179112210301295, 0.8558859741637069, 14404000000, 
0.5004523273206646, 0.18811839638019906, 0.8534779370088327, 14409000000, 
0.43349174404101964, 0.19839175989699293, 0.8506018234426546, 14414000000, 
0.4479234080529238, 0.14303860139514765, 0.8478009478404276, 14419000000, 
0.035857122889447215, 0.09956952197844707, 0.845599481153803, 14424000000, 
0.11710672474610845, -0.036220405667051224, 0.8432830323546919, 14429000000, 
0.015665771425764433, -0.27556690446851306, 0.8404163163980176, 14434000000, 
0.1377044569262876, 0.23779352927338343, 0.8392977459859935, 14439000000, 
-0.06260560247987124, -0.16094501734910038, 0.8357070036572924, 14444000000, 
-0.07928739326928023, -0.21333385630820464, 0.8333014583531713, 14449000000, 
0.03636191277512228, -0.16466725372606772, 0.8306796513351483, 14454000000, 
-0.09041410975573265, -0.13793701938867006, 0.8275867515050236, 14459000000, 
-0.06973290499596908, -0.1149457082532763, 0.8256240783363719, 14464000000, 
0.09594754930287197, -0.10167579451369216, 0.8227483517658478, 14469000000, 
0.03911484622902955, -0.12064150601327213, 0.8203390349405206, 14474000000, 
-0.13211925511622707, -0.116074908079576, 0.8177973363887399, 14479000000, 
-0.001932245899258423, -0.12484641702743385, 0.815320362271207, 14484000000, 
-0.11156401379467086, -0.19573654758010828, 0.81379473065307, 14489000000, 
-0.09595902341036061, -0.14989348777540684, 0.810362385116146, 14494000000, 
-0.019379071385355662, -0.15308646936573508, 0.8074900309852542, 14499000000, 
-0.09225094389392967, -0.15359894098044669, 0.8059434637621694, 14504000000, 
-0.05401561795072963, -0.15827178206471249, 0.8025997059751858, 14509000000, 
-0.12139728648514665, -0.16860561218659478, 0.8010390377915094, 14514000000, 
-0.11426117158567328, -0.17374977398133024, 0.7980743359395863, 14519000000, 
-0.20016319659646328, -0.16921769192656583, 0.7948713942547266, 14524000000, 
0.08578317977998573, -0.08064134802456518, 0.7923019683747533, 14529000000, 
0.12770875608308266, -0.2285505732306824, 0.7902735148049566, 14534000000, 
0.13899324492886844, -0.2926154940207712, 0.788117971173381, 14539000000, 
0.23551265822924283, -0.3033666446404864, 0.7858752785303494, 14544000000, 
0.19828950766568587, -0.3257579117156876, 0.7836795670529173, 14549000000, 
0.22210558916294892, -0.30695041683414126, 0.7819382226245389, 14554000000, 
0.19265813612676158, -0.33062112258065374, 0.7795373163391965, 14559000000, 
0.20204841584006297, -0.2855283660214274, 0.7773645960622728, 14564000000, 
0.20909372746090332, -0.29921514471025623, 0.7757734296421366, 14569000000, 
0.1457241826927206, -0.33515664427849745, 0.7736616939514599, 14574000000, 
0.14713710224027976, -0.31553571479295073, 0.7710913097516244, 14579000000, 
0.13769364739285508, -0.3279165753543496, 0.7695444686297208, 14584000000, 
0.26307428835576363, -0.48442864323619894, 0.7672658799112442, 14589000000, 
0.16343261042917603, -0.31711225630765205, 0.766518958000003, 14595000000, 
0.09254841382293656, -0.21363813800266615, 0.7661802440535542, 14600000000, 
0.08881302835587078, -0.25614472121376997, 0.765314255694393, 14605000000, 
0.11318053155407441, -0.26127075864453597, 0.7648564149004901, 14610000000, 
0.07642840009592014, -0.22905842627827286, 0.7646152252634273, 14615000000, 
0.06585526604814745, -0.30500641386208865, 0.7644577849239808, 14621000000, 
0.0469727200670256, -0.27260280588205976, 0.7633756951499168, 14625000000, 
0.05881838165089476, -0.29474916704806975, 0.7626228923242923, 14630000000, 
0.012469669937377494, -0.29426406842191277, 0.7628207413052642, 14635000000, 
0.03951504174059258, -0.27888811644095013, 0.7618767550875045, 14640000000, 
0.002973739455272545, -0.26929416813563073, 0.7614666320715194, 14645000000, 
-0.014936211051821142, -0.2706076838815448, 0.7609699525581848, 14650000000, 
-0.03341966673211121, -0.2722339906251367, 0.7604917416016764, 14656000000, 
-0.057158161450575666, -0.26590789384745467, 0.7600938352657753, 14661000000, 
-0.01860191381113803, -0.25290111923824354, 0.759760500759608, 14666000000, 
-0.05052645134697579, -0.26024630379348984, 0.759012361150783, 14671000000, 
-0.06596545714734815, -0.24371651062470145, 0.7588542951476508, 14676000000, 
-0.03875621504002785, -0.2480929234452479, 0.7580069511989943, 14681000000, 
-0.08396541193781418, -0.2361782772196654, 0.7580521877066092, 14686000000, 
-0.14510215103392315, -0.23625093431444436, 0.7568705642414797, 14691000000, 
-0.10076328867524666, -0.23805699481108014, 0.7569675189162579, 14696000000, 
-0.11932536067077873, -0.20996222320010186, 0.7564151041188035, 14701000000, 
-0.13921608129970064, -0.21751061610237188, 0.7559067385469573, 14706000000, 
-0.1481493344249668, -0.19181976842086512, 0.7559032744687899, 14711000000, 
-0.16144370003992736, -0.17430856204426057, 0.7550013704205216, 14716000000, 
-0.16908707709738266, -0.18414326992491273, 0.7545937225289251, 14721000000, 
-0.1900862345616733, -0.17435997936557307, 0.7542858410839, 14726000000, 
-0.20241195989833427, -0.14972623248230932, 0.7535020188969914, 14731000000, 
2.4644903133462726, -0.13137509327137561, 0.7561716851198712, 14736000000, 
0.9119511785606544, -0.18185795602531285, 0.7718451508339832, 14741000000, 
-1.71772443931225, -0.5827434882559698, 0.7978196921437561, 14746000000, 
-0.22533108531355303, -0.15562854410603935, 0.8130128115280564, 14751000000, 
-0.23433201670367548, -0.13812203389939015, 0.8314662293649803, 14756000000, 
1.2152913476531788, -0.8507067805690661, 0.8528134552814759, 14761000000, 
0.42612394079605176, 0.7665403996971335, 0.8817519540979389, 14766000000, 
0.1715458171813984, 0.28989485822162775, 0.9135087512860967, 14771000000, 
-0.3388224166617149, 0.010572457022551275, 0.9466811848505949, 14776000000, 
-0.731629791972805, -0.09664467665283676, 0.9830809684885446, 14781000000, 
-0.28684597387800675, -0.004303086184543186, 1.0058891634660718, 14786000000, 
-0.2990859938392625, 0.018078934396755317, 1.0367313424574456, 14792000000, 
-0.33363876898363826, 0.017510150047022617, 1.0621655470229032, 14797000000, 
-0.37656420865704443, 0.03641335284430055, 1.077027364395843, 14802000000, 
-0.3910191237797413, 0.04006209082314645, 1.0860608987618905, 14807000000, 
-0.38040103760520455, 0.050472264922050626, 1.0892579515880394, 14812000000, 
-0.40998384881415273, 0.10452882878499467, 1.0876969229103095, 14817000000, 
-0.41463883514829963, 0.08182361225456948, 1.079325306256811, 14822000000, 
-0.37537047063631335, 0.13839064094263437, 1.0703000905557343, 14827000000, 
-0.40305768029350464, 0.12630219334776513, 1.053178652187792, 14832000000, 
-0.4062438141157134, 0.1070390174561175, 1.0400143047729211, 14837000000, 
-0.38794794633259994, 0.11661038139763706, 1.019168272139198, 14842000000, 
-0.40628534763697066, 0.14562925318103626, 1.002870857278072, 14847000000, 
-0.399522532487402, 0.13693529169685895, 0.9879109055707349, 14852000000, 
-0.4276966436283575, 0.16433407707275244, 0.9799245547689401, 14857000000, 
-0.45913145554490664, 0.14576814548795147, 0.9669371699361765, 14862000000, 
-0.4984807086530663, 0.2687902505906345, 0.9595489206622646, 14867000000, 
-0.650543266374164, 0.6492613597152703, 0.9590206237255442, 14872000000, 
-0.5110743155680607, -0.16109277371434394, 0.961571872468366, 14877000000, 
-0.23486836865432628, -0.31678421893145803, 0.9658815242615532, 14882000000, 
-0.48589810753681734, 0.2266238732469519, 0.9684273744969605, 14887000000, 
-0.5060144697461788, 0.29908928951522085, 0.970898834041539, 14892000000, 
-0.5229023190535328, 0.27400956034898344, 0.9725069367350111, 14897000000, 
-0.5259448637005142, 0.2529853381105262, 0.9745032770937693, 14902000000, 
-0.5569750697899615, 0.24569421040339953, 0.9764021622273481, 14907000000, 
-0.7755651810779516, 0.1998904653036877, 0.9794048565040426, 14912000000, 
-0.4990039957562297, 0.25604463261028654, 0.9822026974665542, 14917000000, 
0.3721856448451066, 0.20425114765140348, 0.9827094770196223, 14922000000, 
-0.6118844345306255, 0.25895040988977175, 0.9818066782394766, 14928000000, 
-0.5301768959671371, 0.24960539168468615, 0.9808813713215185, 14933000000, 
-0.5419878853603, 0.24934935484703225, 0.9802900891468016, 14938000000, 
-0.5368605992241609, 0.2973564366634705, 0.9797506813798387, 14943000000, 
-0.5867271813826689, 0.2932341438754608, 0.9787500543292864, 14948000000, 
-0.5957065922668788, 0.33733225039257686, 0.978157472770737, 14953000000, 
-0.5934142198313247, 0.31929989362664524, 0.9771983164526709, 14958000000, 
-0.6078502392214629, 0.34999261855465524, 0.9763978798256003, 14963000000, 
-0.6090650118821592, 0.3227150331027248, 0.9754889226442082, 14968000000, 
-0.6537296451361073, 0.3240934723683434, 0.9750060112656331, 14973000000, 
-0.6063461597751514, 0.33913950083335614, 0.9744615264029374, 14978000000, 
-0.6554004024910155, 0.35067204131395574, 0.9733213598436552, 14983000000, 
-0.6351416046240711, 0.3679863093626317, 0.9725129108580242, 14988000000, 
-0.6923286473420883, 0.36689133140949015, 0.9721523406630611, 14993000000, 
-0.6437445008426921, 0.3701735709998617, 0.970610889753759, 14998000000, 
-0.7065131205836557, 0.37978737777032406, 0.9702358352808087, 15003000000, 
-0.694945910856657, 0.36410781545799775, 0.9696834544634616, 15008000000, 
-0.7302950220102328, 0.41400323575748843, 0.968774447590863, 15013000000, 
-0.7131680604181612, 0.41723110270713765, 0.9678148234104615, 15018000000, 
-0.7103417964763246, 0.4158202551657218, 0.9671375013458203, 15023000000, 
-0.7325495390951322, 0.4185722943640961, 0.9663073183754625, 15028000000, 
-0.7521007193674696, 0.431623253693278, 0.9649790041375766, 15034000000, 
-0.7423117404697349, 0.39633151774891284, 0.964287179842836, 15039000000, 
-0.7328419206010037, 0.4384619265449502, 0.9632701467132828, 15045000000, 
-0.790419176647805, 0.4310715004561449, 0.9626336354963274, 15050000000, 
-0.7614598434026486, 0.4332295611245108, 0.9616604770621957, 15055000000, 
-0.7545432678548143, 0.4457902493750354, 0.9608716381567266, 15060000000, 
-0.7944435798491668, 0.4429647101768776, 0.9595752790314576, 15065000000, 
-0.7842766915893913, 0.45708160478134335, 0.9590666806347812, 15070000000, 
-0.7728716966504672, 0.47285454641058616, 0.9583215963792684, 15075000000, 
-0.7984311800506589, 0.4987236990512152, 0.9573882706806246, 15080000000, 
-0.8198998302792331, 0.49810721190990664, 0.9562986262579217, 15085000000, 
-0.8332387364982984, 0.46319120660505947, 0.955578285202398, 15090000000, 
-0.8185817430573311, 0.4727681974010511, 0.9549689209244593, 15095000000, 
-0.8203973452966868, 0.4740695800643188, 0.9536927160804003, 15100000000, 
-0.8225377735972769, 0.4941747161161119, 0.9530125601643222, 15105000000, 
-0.8429324663984272, 0.5021636046252248, 0.9521827102725817, 15110000000, 
-0.8404108791244225, 0.4837066453127466, 0.9514586859643093, 15115000000, 
-0.8480534247469701, 0.49322872508970217, 0.9506193400523444, 15120000000, 
-0.8803843927278036, 0.5078683988841696, 0.9493328898320724, 15125000000, 
-0.8860876285163537, 0.5019622262736417, 0.9488720066965017, 15130000000, 
-0.891496779300762, 0.4828153792401032, 0.9478792212926234, 15135000000, 
-0.8744642822503227, 0.48588092913919845, 0.9470900086603377, 15140000000, 
-0.8723216948844565, 0.5005527168385012, 0.9462696959784692, 15145000000, 
-0.8854287939161097, 0.49399810422760293, 0.9452170003807872, 15150000000, 
-0.878544400484468, 0.5235816389863607, 0.9440362820476924, 15155000000, 
-0.8956312697198745, 0.488571027113229, 0.9431556413416057, 15160000000, 
-0.914471738636156, 0.48736398917610757, 0.9426117279461155, 15165000000, 
-0.950308127844177, 0.5244270830572062, 0.9413366561100809, 15170000000, 
-0.9029719578551169, 0.5012237002767923, 0.9406058665327752, 15175000000, 
-0.9193880971959523, 0.49968877462218697, 0.9394893228062992, 15180000000, 
-0.9271570668846291, 0.5268693477857135, 0.9389097502651174, 15185000000, 
-0.9475616065788102, 0.48380318240603737, 0.9379104062771905, 15190000000, 
-0.9390328084465039, 0.5132397281676427, 0.9366510536852705, 15195000000, 
-0.9700753576965484, 0.48933611700414975, 0.9366435503627913, 15200000000, 
-0.9657026279342352, 0.5145693632164198, 0.9349364241010524, 15205000000, 
-0.9518674996696497, 0.49758095511602773, 0.9347732126218279, 15210000000, 
-0.9678531281528198, 0.4907816236452525, 0.93324856750859, 15215000000, 
-0.9986758692962759, 0.5069631727174905, 0.9321635580422984, 15221000000, 
-0.9813362251686554, 0.48649854428785566, 0.9310625243542325, 15226000000, 
-0.9800935168671931, 0.5147191353240045, 0.9301764236702463, 15231000000, 
-1.021796288401572, 0.5086223484147638, 0.9294189047505124, 15236000000, 
-1.008693887318373, 0.5029007425961031, 0.9282696499966944, 15241000000, 
-1.0048065035191729, 0.4930426395290157, 0.9272187812327594, 15246000000, 
-0.991028884105205, 0.523864390765307, 0.9262955902486806, 15251000000, 
-0.9995334590604744, 0.48656932158981026, 0.9256020967654512, 15256000000, 
-1.0095942407608105, 0.5049466488941298, 0.9242533331274112, 15261000000, 
-1.0627859788157414, 0.4995781116653678, 0.9233630460856898, 15266000000, 
-1.0562459532600423, 0.4703677603136121, 0.9228091139271244, 15271000000, 
-1.0133847971857297, 0.4791344338327634, 0.9216675771915501, 15276000000, 
-1.0798032963629134, 0.46438155871587766, 0.9209527146668808, 15281000000, 
-1.079363621155583, 0.47109150741259903, 0.9194569782111462, 15286000000, 
-1.075418664166761, 0.476485408712785, 0.9189084676138892, 15291000000, 
-1.0521281380160152, 0.504622975661361, 0.9178126951130856, 15296000000, 
