acc_x, acc_y, angular_z, stamp, 
-0.08808498156410448, 0.004166960579992273, 1.4477746945843645e-05, 813885000000, 
-0.06855223810278875, -0.004311430667807533, 7.427346856224868e-05, 813891000000, 
-0.04452540215972121, 0.012635996184415108, 4.6525659774579316e-05, 813896000000, 
-0.05079346342188723, 0.0016589257038205209, 0.00010796183470133986, 813901000000, 
-0.06331582025534646, -0.008118683240672372, -0.00019214112249201472, 813906000000, 
-0.07433625465355796, 0.0030806728380931075, -7.313048702618183e-05, 813911000000, 
-0.04225691288468206, 0.0034625501222728997, 0.0004978604475664131, 813916000000, 
-0.044727793523202795, -0.007286064638540339, 0.00019724673656863133, 813921000000, 
-0.05672801864528534, -0.008042080804740302, -0.00010934848568357502, 813926000000, 
-0.07803989486620241, 0.0029510813637663555, 0.00021582491361676903, 813931000000, 
-0.07350509475457569, -0.009694132547870564, 0.00023904413421369292, 813936000000, 
-0.03483595761212268, 0.01257633063290083, 1.6734619767324667e-06, 813941000000, 
-0.05316310880178535, 0.023436353407085105, -5.72993402393384e-05, 813946000000, 
-0.0800754608650875, -0.02593530248391326, 0.00010244911810491351, 813951000000, 
-0.07284688689243926, 0.017856779898855053, -8.999271193298151e-06, 813956000000, 
-0.055639213568642966, 0.03113611924549648, -6.971702703381055e-07, 813961000000, 
-0.027507205765256827, 0.008962397923295038, -4.3196369704921195e-05, 813966000000, 
-0.03908734882973059, 0.017476390636382885, 0.0002737776121952116, 813971000000, 
-0.04278599545048595, -0.013709986377824042, -4.629896868456959e-05, 813976000000, 
-0.05735411198290919, 0.005134690099169601, 0.00016534790051161549, 813981000000, 
-0.0773075986670933, -0.016112005021584608, 6.56911811404787e-05, 813986000000, 
-0.050970761977981414, 0.025058874173841436, 0.00022964819978571422, 813991000000, 
-0.05103099940160459, 0.0333808831686543, -7.379925332786302e-05, 813996000000, 
-0.06368051658076303, 0.01907884745954508, 1.1431945555122344e-05, 814001000000, 
-0.038902848970475495, 0.001347898569871642, -0.00034094698146185386, 814006000000, 
-0.04444445254623609, -0.022268115218232284, -0.00019155973644993204, 814011000000, 
-0.028409092815816446, -0.010963538733131405, 5.625983605364126e-05, 814016000000, 
-0.04744515014764128, 0.002538211302064463, 7.18239936989621e-05, 814021000000, 
-0.07461509651603743, -0.003017534708460228, -0.00010860292819723984, 814026000000, 
-0.046017015148613574, 0.00016531495684341977, -4.487599385899112e-05, 814031000000, 
-0.06563371533909668, 0.01092624642206332, 1.4196578352147944e-05, 814036000000, 
-0.04638751034077236, 0.019571808164640943, 0.0004994475390287142, 814042000000, 
-0.027183691381655148, -0.017030872867826986, 0.00023008992970970866, 814046000000, 
-0.04298735122472645, -0.028583503253911444, -1.3475374588251699e-05, 814051000000, 
-0.06275674416398322, -0.012147235640492427, 1.0875807166139586e-05, 814056000000, 
-0.05409795272544146, 0.011818028066105244, 6.367719311219891e-05, 814061000000, 
-0.0635113284989927, -0.012266124223886338, -0.00013338793953792324, 814066000000, 
-0.06189146637660472, -0.0009908044988107118, 2.6984472337966074e-05, 814071000000, 
-0.047910651316838006, 0.021274932287440637, -0.00012757471970752384, 814076000000, 
-0.032259530880944506, -0.003983779574620042, 1.037768689640026e-05, 814081000000, 
-0.06386597086202454, 0.02275037295087166, 0.00026638606812981404, 814086000000, 
-0.02810853058343828, 0.00875548016889758, -8.205766069600419e-05, 814091000000, 
-0.04257941511584616, 0.022250726517793883, -0.00011400353606569403, 814096000000, 
-0.061063780636183985, -0.00424177762609266, 4.9494475811526576e-05, 814101000000, 
-0.07191678129726016, 0.009263857358765637, -1.954901486407991e-05, 814106000000, 
-0.06214291018592197, -0.01679183216142285, -0.0001636863456799672, 814111000000, 
-0.06934699561800176, -0.013800520054639357, 5.393386418582716e-05, 814116000000, 
-0.06223872956238723, -0.014403116536064565, 0.00024263453400146878, 814121000000, 
-0.06719980296738226, -0.010289007853176314, 0.00036116522349933014, 814126000000, 
-0.0503858413890533, -0.006338852362159822, -0.0001476281754126882, 814131000000, 
-0.0761054903113306, -0.009760892998093618, 0.00018120960494081691, 814136000000, 
-0.040903839018211055, -0.012881581454507471, 2.867898993011484e-05, 814141000000, 
-0.03401806417545507, 0.027795676314447536, -0.00025185412284504325, 814146000000, 
-0.04201849435287272, 0.007724573425985235, -0.0002818898332043095, 814151000000, 
-0.03770845310965881, -0.010281090301235009, -0.00017095932112443514, 814156000000, 
-0.07017086466664935, 0.014434674650088592, -0.00016514291220215608, 814161000000, 
-0.03414413906951239, 0.015684649612769327, -0.0001627881584983298, 814166000000, 
-0.06878265511549872, -0.01799946398354493, 0.00030170337273337304, 814171000000, 
-0.0652511889173245, -0.0051108653043974005, 0.00024212280983067726, 814176000000, 
-0.058532197309699385, 0.004577146308213945, 8.956750701640613e-05, 814181000000, 
-0.06245356817616973, 0.014385613416103607, 3.631132925241885e-05, 814186000000, 
-0.039286791892278496, -0.010419196331118454, 8.460058931550048e-05, 814191000000, 
-0.071023867148713, -0.008295536489404615, 5.013210304613378e-05, 814196000000, 
-0.06391059706910512, -0.0035710551019407944, 0.00015162301041800455, 814201000000, 
-0.06830453141300077, 0.01284360945383538, 0.00011181986892853581, 814206000000, 
-0.05243666905204111, 0.019507705653090013, -0.0002023781348341104, 814211000000, 
-0.05640113010779097, 0.014491108460877051, -0.0001716774061428783, 814216000000, 
-0.04669763482765353, 0.009777961877609008, 7.788038981056011e-05, 814221000000, 
-0.0953663657362086, -0.01181362368708216, -0.00035378596009405213, 814226000000, 
-0.08400274258193201, -0.004490114150448063, 0.000281318311624554, 814231000000, 
-0.06282723770847867, 0.0023050160860819255, -0.0002623382118996682, 814236000000, 
-0.013793249602198188, -0.003726518282743279, 1.539088562822863e-05, 814241000000, 
-0.05383125854051681, -0.028061942458201244, -4.550789679004238e-05, 814246000000, 
-0.04569246833555521, 0.0035191325007977565, 9.489852011700402e-05, 814251000000, 
-0.0565646000626233, 0.01713537491060208, 0.0004327299960315662, 814256000000, 
-0.0666199440674612, 0.012238334412146962, -0.0002727666076102131, 814261000000, 
-0.053925387329197855, -0.020340338859115705, -0.00024417810785125295, 814266000000, 
-0.03585546458973767, -0.013122798164033857, 0.00010912959746011921, 814271000000, 
-0.05769364512601138, 0.029233077350108338, -0.00019207170693559411, 814276000000, 
-0.025961981909466744, -0.013807941059189062, -0.00012907841768974637, 814281000000, 
-0.04298023880930342, 0.026110612989599546, -0.0003345263159260212, 814286000000, 
-0.06354139455836647, -0.004415196084049466, -0.00035579562070071707, 814291000000, 
-0.06183657632374195, 0.009797810937079716, -2.195873722523821e-05, 814296000000, 
-0.06242603264224788, 0.015514039107185575, -5.1547770906196355e-05, 814301000000, 
-0.05061858534820083, -0.006823318879674748, -9.765469840954093e-05, 814306000000, 
-0.0348729533316836, 0.002047689935759285, -0.00015225835398652746, 814311000000, 
-0.05314847790933311, 0.017810227565908877, 3.1243766268108886e-06, 814316000000, 
-0.061392682777529135, 0.02091024953484348, -5.207180519381513e-06, 814321000000, 
-0.0628756154759367, 0.013433187456009363, 0.0001460384913497221, 814326000000, 
-0.08381169620449995, -0.028166825523522118, -0.00010771160201010056, 814331000000, 
-0.051492594132780053, -0.03297419532605962, 0.0002806102351360744, 814336000000, 
-0.054290954154751166, -0.051751063216783244, -9.499756364737085e-05, 814341000000, 
-0.016197431854140264, -0.008964544125754013, 0.0001335621734652848, 814346000000, 
-0.04085207224011632, 0.005185062984232586, -0.00017899803082408892, 814351000000, 
-0.03706969507795094, 0.030132388220786382, -8.643539049649166e-05, 814356000000, 
-0.059986084912394926, 0.006010748755408494, 0.00021316540152823023, 814361000000, 
-0.040346912643308246, 0.008674349813913703, 6.334990934548859e-05, 814366000000, 
-0.056044247608703725, -0.02567329912880599, -0.00017255629735303413, 814371000000, 
-0.05526293298599338, 0.03583430515847914, 4.662398618462391e-06, 814376000000, 
-0.062133065561974156, -0.004837682881865006, -0.00017036366081607992, 814381000000, 
-0.05653356796402487, 0.019469651827665198, -6.963093174104495e-05, 814387000000, 
-0.061360027113769894, -0.0019398054420317863, 0.00021320819913079456, 814392000000, 
-0.05824169270790235, 0.025771208572451396, -0.0001147127722242067, 814397000000, 
-0.06526846289562105, 0.02647653568554116, 6.861898746081175e-05, 814402000000, 
-0.08226395850389985, 0.0035947123901577836, 0.00031146341782516314, 814407000000, 
-0.036286174274116234, 0.0026864687306618162, 0.00030782115105392914, 814412000000, 
-0.04418069079236389, 0.016871137107701287, 4.75006580569752e-05, 814417000000, 
-0.06993815239015033, -0.01771976869849179, 0.0002494221671562554, 814422000000, 
-0.027675214129310986, -0.029868393016414297, -0.0005388043067634054, 814427000000, 
-0.04004766078860107, -0.014038359011559557, -0.00014642193375324276, 814432000000, 
-0.036322217055574514, -0.013397076816693443, -0.00019724383677214235, 814437000000, 
-0.08365906776166859, 0.007012207742146808, -0.00011373052289939223, 814442000000, 
-0.052558709905021775, 0.006304702795319762, 0.00024851239276473355, 814447000000, 
-0.0595658380630422, 0.014451078049349267, -0.00020370277589326736, 814452000000, 
-0.05046954476579293, 0.017841627705722122, 0.0001536950388331079, 814457000000, 
-0.06415686713279399, -0.004770826675953406, -8.898603521286419e-05, 814462000000, 
-0.047884344767666065, -0.0019720502810169904, 1.2936267710593066e-05, 814467000000, 
-0.06121140300818781, -0.014861913457049269, 4.300819423513422e-05, 814472000000, 
-0.06025518932932822, -0.009220971947268407, -8.809019171300081e-05, 814477000000, 
-0.05289321429367526, 0.0005718452514059476, 0.00012283031643689848, 814482000000, 
-0.044090372920478016, 0.005432735689774692, -0.00011749279330947145, 814487000000, 
-0.06853051902345991, -0.011930031296206747, -0.00010385443330531426, 814492000000, 
-0.052072429617559014, -0.0012336486392656735, -6.41631165752368e-05, 814497000000, 
-0.051376925676562185, 0.019824706347592418, -0.00012580862446849583, 814502000000, 
-0.05129482895018969, 0.0052167314872612475, 4.663246047570458e-05, 814507000000, 
-0.0679025188782265, 0.012554150294296792, -2.4216396852435845e-05, 814512000000, 
-0.07124695863339756, -0.022506729196404545, 0.00014548635039382337, 814517000000, 
-0.05404011975428962, 0.03577834080242247, -0.0004515324627970966, 814522000000, 
-0.052242471564533016, 0.021770667153881713, -0.0002676045524549714, 814527000000, 
-0.03143597492401978, 0.036592102765695585, -0.00015343122260037635, 814532000000, 
-0.01860266000038216, -0.007833911279166283, -0.0002506748902820895, 814537000000, 
-0.05800489684088454, -0.02846747173382314, -0.00012681237056079845, 814542000000, 
-0.08212923048325727, -0.010563513626777654, -0.00018631514344896543, 814547000000, 
-0.0213368508311867, 0.02294738538523721, -0.0001899528174054218, 814552000000, 
-0.04857636098631423, 0.01166819347447199, 0.00017446565313604685, 814557000000, 
-0.053496032970437916, -0.01746322082226287, 4.1966151016683565e-05, 814562000000, 
-0.054423500172409184, 0.0036178354151088937, 0.00017686442487807258, 814567000000, 
-0.05166619737300207, -0.011676808774066894, -0.000153807783298434, 814572000000, 
-0.0484142544393354, -0.0008422860418251711, -0.00012500161408153363, 814577000000, 
-0.0693102332837981, 0.021534824206679886, -6.087323672244345e-05, 814582000000, 
-0.07082837332253088, -0.025125959080473517, -0.00023965563919047864, 814587000000, 
-0.04566085607858486, 0.017451869826589396, -0.00013607150915032127, 814592000000, 
-0.04258614654554374, -0.003764273671962587, -8.062869991057519e-05, 814597000000, 
-0.07714678903802466, -0.012145274988420399, -0.00010571783324289942, 814602000000, 
-0.043764049182799476, -0.015872001397823833, 0.00020193445376860236, 814607000000, 
-0.046797792510772165, 0.005154393624991601, -0.0001423497891542842, 814612000000, 
-0.019484384539246703, -0.005605371520922865, -0.0003292729747621906, 814617000000, 
-0.049595571228076486, -0.015953404365435787, 0.000276978400312422, 814622000000, 
-0.04147994135294722, 0.02023089868487367, 5.4623251137443884e-05, 814627000000, 
-0.036907290439916474, -0.0006442749053390672, 6.658023234265674e-05, 814632000000, 
-0.07164056976043681, -0.016697135350054636, 7.004709445231247e-05, 814637000000, 
-0.0711187002484429, 0.013711027802133655, 0.0002331205631591714, 814642000000, 
-0.046122772924148396, -0.010716405992447144, -0.00023062384994510478, 814647000000, 
-0.07770196191771217, -0.009061498158484801, -0.00032246615567674904, 814652000000, 
-0.04118920336528639, 0.003464674778864352, -0.00016793297325347256, 814657000000, 
-0.06447670370593943, 0.02628089110164148, -0.00025124280132103843, 814662000000, 
-0.0768593059888638, 0.002348728508974103, 8.889210099578359e-06, 814667000000, 
-0.06397708577184423, 0.03950108688558046, -1.8143313425381737e-05, 814672000000, 
-0.052321652869323304, 0.009665007816744427, -9.274624331898734e-06, 814677000000, 
-0.06389962696938194, -0.01530670535110458, 0.00020093292698429536, 814682000000, 
-0.06473292607277095, 0.003803615725347897, -0.00015105119548386583, 814687000000, 
-0.039647869540549704, 0.0016477143288747905, -2.0789124728920996e-05, 814692000000, 
-0.03908489306539368, 0.029152088591724384, -9.880732645337508e-05, 814697000000, 
-0.03881523544694706, 0.0003761064313454578, -1.881556033913997e-06, 814702000000, 
-0.05009236055065343, -0.0009285786462386294, 9.548751473042285e-05, 814707000000, 
-0.06670649167147942, 0.016609682603510756, -0.0003234529099619996, 814712000000, 
-0.05396978890786868, -0.014839525171768115, -3.191122972958404e-05, 814717000000, 
-0.05509974016245426, -0.002556079132444865, 0.00016510273362105437, 814722000000, 
-0.04862064096117786, 0.012526027530257873, -6.372133739911639e-05, 814727000000, 
-0.03299852833360682, -0.010209504965793766, 1.3349098610184466e-05, 814732000000, 
-0.07839881997633748, -0.02297575542994883, 2.6594717760284137e-05, 814737000000, 
-0.05074819161665694, -0.025306115835149395, 0.0001172438643506948, 814742000000, 
-0.10572906903588049, 0.01242353064938417, -0.0004156140206228005, 814747000000, 
-0.06380129774567604, 0.01183411391530417, -0.0003499326985669244, 814752000000, 
-0.040731391770967275, 0.015713321874269923, -0.00012885639421722934, 814757000000, 
-0.06356325223084322, 0.006107883924936161, 6.802037825786973e-05, 814762000000, 
-0.04695124768288846, 0.01028516826741359, 0.00010394961783541852, 814767000000, 
-0.038890011593062816, -0.02157539412436929, -8.564827440186327e-05, 814772000000, 
-0.05371674958800508, -0.02020132480505927, -1.173552667090096e-05, 814777000000, 
-0.032727835241379455, -0.010285046884743507, -6.947661927053521e-05, 814782000000, 
-0.03530865681473837, 0.002641458147704065, -0.0006482661735700553, 814787000000, 
-0.04824244639438336, 0.001979215428277687, 0.00032417709510015815, 814792000000, 
-0.0710208672086538, 0.0213434135363206, -0.00012041236743633332, 814797000000, 
-0.04309549199865462, 0.03207857616268635, 7.109110030768337e-05, 814802000000, 
-0.02818939991412546, 0.005266736940936628, -0.00022236724704572723, 814807000000, 
-0.05292172216622185, -0.023163337177189124, 0.00014529155105498523, 814812000000, 
-0.08877541478608884, -0.02430687004537492, 0.0001509568270731489, 814817000000, 
-0.05524716327244658, -0.028761014214816555, 0.0003753623193730193, 814822000000, 
-0.050360791006797107, 0.02748339271426093, 2.3993882457972132e-05, 814827000000, 
-0.056718186199090366, 0.027658732950135687, 6.490314425299754e-05, 814832000000, 
-0.032352095762527164, -0.0022616884940608586, 0.00031605172549398805, 814837000000, 
-0.0730617685911106, 0.014610151240471856, -0.00014809793575861648, 814842000000, 
-0.03594342731233534, -0.0019710552862068687, -7.790686534969927e-05, 814847000000, 
-0.05861997552992244, -0.003270779332830988, -1.169381609671407e-05, 814852000000, 
-0.0578592779555857, -0.005858701068776055, -0.00017532254260907733, 814857000000, 
-0.058528031062149696, 0.007133985453837773, -0.00010782387756093206, 814862000000, 
-0.07411325233940708, -0.018914942469580052, -1.5255397443943334e-05, 814867000000, 
-0.043374264406817166, 0.03703965000311362, 0.00030267561609282126, 814872000000, 
-0.0582877799132158, -0.003266013098363457, 0.00016143459178059546, 814877000000, 
-0.050753555960802534, 0.012506218319740647, -6.844059314970614e-05, 814882000000, 
-0.051382785475022875, 0.00737622411135402, -0.0001161426403887594, 814887000000, 
-0.042739681183476215, -0.02401083905070101, 0.0003218670169045787, 814892000000, 
-0.03944121700798353, 0.0017425950884514857, 0.00012098046929321988, 814897000000, 
-0.046408745258401406, 0.0007596794094202075, 0.00027609524765199946, 814903000000, 
-0.08823334398889873, 0.000992754441744282, 0.00035581597817572813, 814908000000, 
-0.05495864552463907, -0.008772697995241649, -1.9077403175097177e-05, 814913000000, 
-0.07161847494040605, 0.0024975942106336174, 0.00023989515802193476, 814918000000, 
-0.0798259816319334, 0.012262355501040725, -3.3987972355620986e-05, 814923000000, 
-0.06245181106802094, 0.020297352848616168, -4.2327534194396004e-07, 814928000000, 
-0.06601608735778423, -0.011311843594948976, -0.00013000125767149623, 814935000000, 
-0.06781442855976605, 0.010035133563034478, -0.00048121622814463667, 814940000000, 
-0.0707236610191925, -0.009469469613154417, 0.0004805349545612792, 814945000000, 
-0.055339669449231896, -0.005234181382800569, 0.00016706645745576723, 814951000000, 
-0.04145947561779366, -0.024061045745106122, -0.00014988335213747433, 814956000000, 
-0.04265572178571391, -0.009493127202689983, -1.4232804393123859e-05, 814961000000, 
-0.06827154194304648, 0.017100567935684877, 0.00017491079855006534, 814966000000, 
-0.05665459262108584, -0.004282773137855383, 0.0003400916542749681, 814971000000, 
-0.06815425152935674, -0.007630264424918985, 0.0001314672296852802, 814976000000, 
-0.01613179818954264, -0.017894861796621156, -0.00028988819294934744, 814981000000, 
-0.04834166628075396, -0.004938064401425201, 7.749697691432174e-05, 814986000000, 
-0.04200065566962729, -0.004528925120592341, -0.00024352770580291357, 814991000000, 
-0.06089595729704243, 0.013807316769235588, 0.00010826459651740988, 814996000000, 
-0.037623869371978785, 0.025041049548255555, -7.105876219170038e-05, 815003000000, 
-0.038203493431181096, 0.004923110831713528, -0.00023789029409041553, 815008000000, 
-0.06604376427307443, 0.009513602798948763, -0.00014971356174448423, 815013000000, 
-0.07107029574609564, -0.003765184414450787, 0.00042480718253381264, 815018000000, 
-0.08025896837794787, -0.020632036976109068, -2.2511738442607143e-05, 815023000000, 
-0.04775020725734358, -0.02631355563971839, 0.0001385059423513321, 815028000000, 
-0.036222689624023696, 0.005239234130897231, 9.594645049665004e-05, 815033000000, 
-0.048913332419974795, 0.006523303463265598, -0.00010740301170924736, 815038000000, 
-0.0800930826983931, 0.008273278801128924, -0.00028911361713201874, 815043000000, 
-0.04452758180559589, -0.01170220486092605, 0.00015614873149704387, 815048000000, 
-0.04646094369440031, -0.00594250443432433, 5.6991606485036485e-05, 815053000000, 
-0.07343447187055917, -0.014874825262205772, -0.00024537255710763633, 815058000000, 
-0.04968723626993608, 0.03451888821777262, 0.00029790724871490753, 815063000000, 
-0.036902565058275334, 0.01139917724914135, 8.199053638663686e-06, 815068000000, 
-0.06813303671192986, -0.013238708381072883, 9.398153487847693e-05, 815073000000, 
-0.039391191297184866, 0.001722289735949077, -6.483713381075191e-05, 815078000000, 
-0.04931239696254598, -0.0008843083848191163, 0.00015380005439557853, 815083000000, 
-0.06238810090880255, 0.011572917231297938, -0.0001612229958975878, 815088000000, 
-0.0714792807075108, -0.0013771374539909755, 1.3212863720276942e-05, 815093000000, 
-0.07307092958250094, -0.03909329757337357, 0.0002821635883135502, 815098000000, 
-0.05847772860440637, -0.011871320343594238, 0.00023991823093656034, 815103000000, 
-0.025932389438291785, -0.017806531676023928, -0.00019796865725169578, 815108000000, 
-0.06022805037137388, 0.006986837387735043, -0.0001158150447626841, 815113000000, 
-0.06871914552098705, 0.013060066234982909, 0.00031593536279322086, 815118000000, 
-0.07129893445638377, -0.006577584666843742, -8.526462967878946e-05, 815123000000, 
-0.061837508959520573, -0.01653089373979213, 7.621892590297616e-05, 815128000000, 
-0.04995670018592726, 0.02816994601466944, -2.1412522867566793e-05, 815133000000, 
-0.03258276414966768, -0.004201360974081353, -0.00024031526648819976, 815138000000, 
-0.04502208164916187, -0.0062538589695966505, 0.00016868501913284384, 815143000000, 
-0.0668589826129458, -0.017181117472434858, 0.00016850894917783937, 815148000000, 
-0.05568777984319032, -0.027174438923468304, 7.185903159556453e-05, 815153000000, 
-0.08924575529036455, 0.01780277829705549, 0.0003862881460405588, 815159000000, 
-0.06616117598910287, 0.0001142768355573572, 4.1051007604178785e-05, 815164000000, 
-0.06273998783572665, 0.020356323410831777, -0.00021004279669859454, 815169000000, 
-0.039949354417479425, -0.002710679250444341, 3.221220872819057e-05, 815174000000, 
-0.043617057148207954, 0.009725396328537498, 4.97453325363065e-05, 815179000000, 
-0.06154124191017525, 0.012710990664377014, 0.0001796075694887992, 815184000000, 
-0.062153895996750315, 0.01478288107894004, 0.0002416856012603304, 815189000000, 
-0.07305536691226532, -0.016950488129553076, 0.00041269765179942537, 815194000000, 
-0.05577627330016274, -0.011648343722746946, -9.30780712384169e-05, 815199000000, 
-0.06400499107136928, -0.015513002065584907, -0.00028480695024604106, 815204000000, 
-0.04157456026239119, -0.018393977185825593, -2.0680010276775347e-05, 815209000000, 
-0.06584485011777406, -0.026735043662103174, -0.00010737873887920016, 815214000000, 
-0.02068453592238545, -0.03279602950442543, -0.00011992693158095766, 815219000000, 
-0.04558824735475659, -0.008730906028606255, 6.178973306123144e-05, 815224000000, 
-0.07364377707715235, -0.006944177533078064, -4.5511899311554125e-05, 815229000000, 
-0.04361420785925181, 0.0026224934509882685, 0.0002727232519614284, 815234000000, 
-0.07414442206804371, 0.010827930742885303, -0.0003820595231636534, 815239000000, 
-0.033008291201129775, -0.00658873204342245, -8.863204442553367e-05, 815244000000, 
-0.06758873646853385, 0.014277130138839847, 0.00029374929310541336, 815249000000, 
-0.04373220589682508, -0.001707431914634103, -2.6814943946779023e-05, 815254000000, 
-0.05606407351579877, -0.011919948961016242, 1.5009657992764302e-05, 815259000000, 
-0.07525799341923452, -0.015460292090161353, 0.00011591475592175124, 815264000000, 
-0.06981320890330826, 0.026579692033260202, -0.0002336872931544324, 815269000000, 
-0.05798688392279806, 0.018497438688872866, -2.1937693780585218e-05, 815274000000, 
-0.06397589706524157, -0.06663128459337539, -0.0002812451623903831, 815279000000, 
-0.0922519039708693, 0.004160591768593164, -5.736855441013863e-05, 815284000000, 
-0.05799416007347463, 0.01852205159771813, 0.00025217169127596, 815289000000, 
-0.08221539940997259, 0.009913495037230215, 0.0001383998598080457, 815294000000, 
-0.0660581020903724, 0.011855594316194677, -8.829167755522604e-05, 815299000000, 
-0.03443892655743952, 0.006590691338802863, -0.00020895792515517896, 815304000000, 
-0.05274100088548698, 0.017105435682104785, 3.560824013432408e-05, 815309000000, 
-0.07120246618182832, -0.006549569010244475, -2.6437881813300552e-05, 815314000000, 
-0.04224006794290808, -0.0037707300544661255, 9.170399702148585e-05, 815319000000, 
-0.03582508254191082, -0.0013018907515302389, 0.00031981674490817865, 815324000000, 
-0.05651634896152733, 0.0037084416754801365, 4.224614215068335e-05, 815329000000, 
-0.06166582603424764, -0.0007550834442535167, -0.00020549221841865888, 815334000000, 
-0.050132122128071534, 0.013755371388047305, 7.30837868095008e-05, 815339000000, 
-0.04895036396681163, -0.011753931115953353, 0.0001588716851917264, 815344000000, 
-0.0846743289082004, 0.01133945881360951, 0.00015674386133481978, 815349000000, 
-0.05904928947496024, -0.01600174495180573, -0.00012134070648985588, 815354000000, 
-0.04658252740415844, -0.01891986968969009, 5.319967584652122e-05, 815359000000, 
-0.07450299623539187, 0.007727699482808166, 1.8641781596418348e-05, 815364000000, 
-0.042951895779875675, 0.025343081195182172, -0.00015728034558018042, 815369000000, 
-0.09320751561309729, -0.008340548747927027, -0.00022846662070684975, 815374000000, 
-0.06674980799588554, 0.026163883868495674, -5.0916205635230135e-05, 815379000000, 
-0.052058200974258326, 0.01007975234503927, -0.00017565098158330724, 815384000000, 
-0.05564147949227409, 0.013563437923650078, 8.432549244433565e-05, 815389000000, 
-0.048872723431328355, -0.007953916497652796, 1.6792785719184994e-05, 815394000000, 
-0.03812052640228495, 0.012613614120193671, -0.0001937399319280666, 815399000000, 
-0.05054665880592867, -0.012706413850046968, 0.00028671795454944987, 815404000000, 
-0.06331758205999531, 0.012373098564975895, -0.00019254257341773517, 815409000000, 
-0.043047592577922386, -0.00018286059474088715, 0.0003246806582686814, 815414000000, 
-0.08621590893623154, -0.025852241417482713, 7.024563829488322e-05, 815419000000, 
-0.04965748031726633, 0.01695921731518147, -4.054072426517623e-05, 815424000000, 
-0.05511553373958218, -0.03533544916831764, 0.000271042329349087, 815429000000, 
-0.060756629346890904, 0.02284045146269474, 0.0004315607639402421, 815434000000, 
-0.05186457818689314, -0.027398962343910215, 0.00020988164636298725, 815439000000, 
-0.04734753535296609, -0.019699695342519318, -3.337584883309565e-05, 815444000000, 
-0.06963048722468028, 9.930779705599269e-05, -0.0002053781813979003, 815449000000, 
-0.041067660342337886, 0.025245072508941598, 0.00011941884548417589, 815454000000, 
-0.08365508782387845, 0.0025037395281715794, 0.00013114448084699216, 815459000000, 
-0.06912579351365833, -0.02129678169175891, -0.0003327521810425785, 815464000000, 
-0.06934757206867896, 0.0004947621975711267, -1.2917539898385544e-05, 815469000000, 
-0.07912488361401895, 0.024625289662388965, 0.00010480993267876537, 815474000000, 
-0.08860922539155136, 0.013679001370418808, -9.417294723254958e-05, 815479000000, 
-0.047151635184499184, -0.008152198787640135, 0.00011215910150096775, 815484000000, 
-0.059673451618879034, -0.01610083071309967, -3.254005477953206e-05, 815489000000, 
-0.03416975695824723, 0.02650132182852358, 0.00026358327262518796, 815494000000, 
-0.07640669063755247, -0.0002964074071239144, 0.00018698260587638198, 815499000000, 
-0.04629255771550541, -0.027953432035299302, 9.133937048922227e-05, 815504000000, 
-0.0324714175537207, -0.0006680904670728143, 0.00013284746727533942, 815509000000, 
-0.04275686717893766, 0.0054286453191925025, 7.843743625873526e-06, 815514000000, 
-0.051894038682541874, 0.0025159690110197475, -0.00016154769408886573, 815519000000, 
-0.03621335188273458, 0.001542825706643768, 0.0001035127871471568, 815524000000, 
-0.04691511671386564, 0.020409655012664476, 0.00013288061939265366, 815529000000, 
-0.08523757392626215, 0.004967876443033239, 0.0002691386827252161, 815534000000, 
-0.0730846815956022, -0.011252203351744289, 0.00014839618254000497, 815539000000, 
-0.06956481576943772, -0.013379268301855759, 4.980950728984568e-05, 815544000000, 
-0.03081526299268465, -0.02404868870494985, 7.288135120572857e-05, 815549000000, 
-0.04025106734851684, 0.05045678287191202, 0.00019565775616437912, 815554000000, 
-0.03890073280260144, -0.003660612012819424, 4.1091658987913395e-05, 815559000000, 
-0.06147214155740913, 0.017036719072768495, -1.8016286258728796e-05, 815564000000, 
-0.07467699604399017, 0.01603181746932804, -9.767869698169099e-05, 815569000000, 
-0.05067406850351229, 0.03061861659676625, 0.00039784003127103654, 815574000000, 
-0.025088738454933715, 0.0023876995327914443, 0.00018946992671026137, 815579000000, 
-0.0437042184843088, -0.010796875993781905, 0.00039182546263470935, 815584000000, 
-0.07052578396089638, -0.002656218541903285, 0.00017425398547369717, 815589000000, 
-0.05742926437262089, -0.00801668576149102, 0.00012801766312455688, 815595000000, 
-0.052932556023391086, -0.01403372813883236, -7.996339054457489e-05, 815600000000, 
-0.05691859073517269, -0.018122170234488044, -1.1960521507812734e-05, 815605000000, 
-0.04739597779750238, 0.020404347348682808, -5.084988400119217e-05, 815611000000, 
-0.04649091924009723, -0.02159040544930176, 9.342500597156041e-05, 815616000000, 
-0.05808981330886016, 0.00040855334273546813, 0.00032592161089668595, 815621000000, 
-0.049549216413545635, 0.022841170157398012, 3.365754937801216e-05, 815627000000, 
-0.053260729300301006, -0.02975996500216826, 8.467788478850568e-05, 815632000000, 
-0.040538721477137746, -0.01955536635970106, -0.000518485108222936, 815637000000, 
-0.06935065937219025, 0.0029625120492295914, 0.0001676684810520317, 815642000000, 
-0.06999814599478546, -0.016275262231845635, 7.348599746482401e-05, 815647000000, 
-0.06818311111398116, 0.003982681428872401, -5.358907522941972e-05, 815652000000, 
-0.08604842530982602, -0.007058167584791698, 0.0001401847923400633, 815657000000, 
-0.07009920956807707, 0.02418550588884639, 0.00021417353461662748, 815662000000, 
-0.03317620879009212, -0.005015037236915385, -0.00019686692269509372, 815667000000, 
-0.02141533330351146, 0.00240249762388971, -5.530807170193659e-05, 815672000000, 
-0.05397174057006272, -0.006033377981361097, -8.284308225213221e-05, 815677000000, 
-0.045269248268811346, 0.01541115645798079, -0.00032153134701885485, 815682000000, 
-0.05906474718430084, -0.0327472550461729, -0.00016900704647465062, 815687000000, 
-0.059344554107704915, -0.01326991705518112, -0.0001112795096441506, 815692000000, 
-0.037353106466876035, 0.0124344296133051, -0.00018410380131322413, 815697000000, 
-0.0716989520459667, -0.01155924264517779, -0.00026414323713457656, 815702000000, 
-0.05060199505672954, 0.013983336211208827, 8.126354096521414e-05, 815707000000, 
-0.06001133575396077, 0.0348178023758575, -0.0001025495236417546, 815712000000, 
-0.04806948703613014, 0.0011603496554192729, -0.0003994776566787195, 815717000000, 
-0.028879250963097857, -0.043821830936768995, -0.00011837007990311698, 815722000000, 
-0.05258465592442803, 0.022290533356784676, 5.182420730763343e-05, 815727000000, 
-0.04143112173972577, 0.0005250217449020656, -0.00014574837324871746, 815732000000, 
-0.06684843861146751, 0.01796581367601276, -5.8303961946978725e-05, 815737000000, 
-0.02423363495731023, -0.006024609477143924, -1.3541304750481123e-05, 815742000000, 
-0.050710350802823226, 0.012424097976442805, -2.445732131481575e-05, 815748000000, 
-0.07665390055089266, -0.027433578708311618, -0.0002810716460949349, 815754000000, 
-0.07161745242353555, -0.009949042759180115, 2.4921272165639754e-05, 815759000000, 
-0.031239674382786787, -0.013542274698127639, 0.00017500502776712185, 815765000000, 
-0.06545911318753664, -0.010302098688008614, -0.00039274892814154474, 815770000000, 
-0.0634135474440259, 0.00218019713260479, 7.701599412295897e-05, 815775000000, 
-0.05565025523235586, -0.0016465939040529664, 4.2989715046369294e-05, 815780000000, 
-0.03816039055699016, -0.006431675982908996, -0.000299075132283105, 815786000000, 
-0.057893625193691636, -0.008397291221184116, -8.582304617613088e-05, 815791000000, 
-0.060598033122275435, 0.02259225083836363, -4.180466533410085e-05, 815796000000, 
-0.045347804066906305, 0.019773297035027025, 0.00020111967583292644, 815801000000, 
-0.06724495239752701, -0.020507206547628026, 6.929671661647088e-05, 815806000000, 
-0.05169945766859189, 0.021201150531511604, -0.00014116814772889498, 815811000000, 
-0.0720892107415873, -0.018150640473132855, -1.1904966112175714e-06, 815816000000, 
-0.02834386840896857, -0.009765360631270698, 0.00014977244434931838, 815821000000, 
-0.06261834425333263, -0.0004164276844288618, -3.112879168810135e-06, 815826000000, 
-0.05502677111708804, 0.0425944870991806, 0.0005968008334920826, 815831000000, 
-0.08992138200869923, -0.029545967602966225, -0.00022769940239443327, 815836000000, 
-0.04520304315758212, -0.015642487434568357, 0.00012174059194502996, 815841000000, 
-0.07021160451356336, -0.010565771669444978, -4.135033262141727e-05, 815846000000, 
-0.06109686326938286, 0.021748067103869385, -0.0005145347689539382, 815851000000, 
-0.0601900277149382, -0.007021360820399112, -6.631540324559177e-06, 815856000000, 
-0.06215222417181164, 0.0011213949259888311, -0.00018812137174512388, 815861000000, 
-0.06543583381300636, -0.03614558281661715, -0.00014900717641475397, 815866000000, 
-0.07010022462445728, 0.004022835133313684, 6.343765354412676e-05, 815871000000, 
-0.0633961134291598, 0.025042562997981903, 7.077103029722565e-06, 815876000000, 
-0.05740254954192983, -0.0010604168579292968, 0.00011954574820313701, 815881000000, 
-0.05950434475248639, -0.01715843912552021, 4.9556237460946e-05, 815886000000, 
-0.08375846872443504, 0.006850483564277462, 0.0003524721134359915, 815891000000, 
-0.08019052431710087, 0.018793700733626212, -0.0003249194540676511, 815896000000, 
-0.05844550114992015, -0.011349559478428261, 7.158590912994796e-05, 815901000000, 
-0.06913369367983087, -0.006319685164811146, -3.0590648603218785e-05, 815906000000, 
-0.10496058380753479, -0.008315461715336845, -5.5236963486892514e-05, 815911000000, 
-0.10404429516870675, 0.017993882601113686, -5.0214420669050894e-05, 815916000000, 
-0.0751744188360744, 0.019371212030175534, 5.483755101753923e-05, 815921000000, 
-0.023925297982818006, -0.004617394670330896, -2.1559971117853668e-05, 815926000000, 
-0.018759324835715713, 0.01392165922335325, -0.00020009081366794041, 815931000000, 
-0.04132749381671722, -0.014195642540822121, 0.00013724610953720352, 815936000000, 
-0.06866830258844332, -0.017907569833480828, -0.0002277744789130457, 815941000000, 
-0.056258725787374765, 0.00278846226047261, 0.0001894043699894139, 815946000000, 
-0.08327511388892159, 0.014329959863628332, -0.0002729097283681584, 815951000000, 
-0.019748287164318527, 0.017396254123286152, 0.000269124672540856, 815956000000, 
-0.08597619922048984, 0.0070875269019581195, 0.00013932456968551116, 815961000000, 
-0.045695509931600806, 0.015246130611809263, -0.00014180381112483776, 815966000000, 
-0.07270898477630373, -0.008750898238174085, 0.0001610219850148375, 815971000000, 
-0.030151542239929385, -0.003179280270773541, 0.000354935424716221, 815976000000, 
-0.04152343927746903, -0.01936973104726569, 0.0002545504423270174, 815981000000, 
-0.0520686850838076, 0.027301119235775224, -2.227767083958092e-05, 815986000000, 
-0.08131971080145625, -0.0047943393529568095, -4.4150840705213333e-05, 815991000000, 
-0.040797328080415564, 0.009912276154969077, -0.0004495710805147409, 815996000000, 
-0.06842490137276479, 0.012626682248874898, 0.00022080862636484532, 816001000000, 
-0.07105413772942885, 0.01489371835633067, -0.00017275984166915855, 816006000000, 
-0.07038883944814545, -0.013095670782559875, 0.00028466809740570765, 816011000000, 
-0.06204525662039281, -0.00040277031133337986, 0.0002663413370621731, 816016000000, 
-0.04480243362418724, 0.0005834642492796107, -8.65422005881515e-05, 816021000000, 
-0.03942916360898856, -0.013330291499083248, -0.00014979741621060392, 816026000000, 
-0.07790645049677639, 0.013457000357604961, -6.217527110136207e-05, 816031000000, 
-0.06056799839219744, 0.03188301507357054, 7.464672290754363e-05, 816036000000, 
-0.04472026543005836, 0.006266060606729112, -0.00023738500225714874, 816041000000, 
-0.07009719979457008, -0.008753121976385385, 9.161588486692062e-05, 816046000000, 
-0.05172348461267473, 0.006181085229574189, 0.00023341873733200174, 816051000000, 
-0.054383544464183683, 7.412382770770462e-05, 0.00019730891340886204, 816056000000, 
-0.08670653648408899, -0.0027141433436748052, 0.0003209915732921554, 816061000000, 
-0.04769375599768769, 0.030095119545120296, 1.2913046083244637e-05, 816066000000, 
-0.04648018597681976, 0.004268570259557605, 8.298083059416233e-05, 816071000000, 
-0.07632050743253768, -0.03567556959509687, 5.280161156217422e-05, 816076000000, 
-0.05042327969705743, 0.01327730838070649, 0.0002499608727573705, 816081000000, 
-0.07122999081192073, -0.012617652098836422, -0.00020597410047476188, 816086000000, 
-0.0579810801899957, 0.022393097441299716, 8.517731499426284e-06, 816091000000, 
-0.05514057333766432, 0.012633291288906248, -0.00018802688443854442, 816096000000, 
-0.06992456110329905, 0.01649364761526977, -1.546791152272356e-05, 816101000000, 
-0.06148409671373616, 0.0021347561255922786, 5.3725981921031265e-05, 816106000000, 
-0.029230075191303738, -0.003914972631222885, -0.00011462457124253338, 816111000000, 
-0.050803825333643124, 0.020062472849999298, -0.0003083177595660641, 816116000000, 
-0.02810096240613949, 0.00033262672311854316, -9.156018400782579e-05, 816121000000, 
-0.046941920154121554, -0.004406859068442627, -0.00026524840418263223, 816126000000, 
-0.06487992797638771, 0.021353614891216777, 0.0002545264891642558, 816131000000, 
-0.07618791020719998, 0.025871619662503786, -9.551471713069057e-05, 816136000000, 
-0.04511483473340325, 0.019469870672930916, 0.0001506385917773076, 816141000000, 
-0.02651425700660886, 0.021541887946869193, 0.00017031464738858685, 816146000000, 
-0.0582718067749985, -0.02143996056957154, -0.00031849375709228387, 816151000000, 
-0.08718622880983601, 0.01258385031227863, -5.860744939431566e-05, 816156000000, 
-0.05704018148646041, -0.0018880858226944437, 0.00046280116790408694, 816161000000, 
-0.052945279717499974, -0.004751438813516259, 2.775066960585542e-05, 816166000000, 
-0.03152137419986788, 0.009918991421844988, -1.5081642201163462e-05, 816171000000, 
-0.08705185867603066, -0.01376332312836441, 0.0002262290537329717, 816176000000, 
-0.03558400078076793, -0.02544583133100344, -0.00017658269784022506, 816181000000, 
-0.07493506365586411, -0.01168034473894635, 0.00031427170207307283, 816186000000, 
-0.06189547134062599, -0.003213536862981893, -0.00035218890330536234, 816191000000, 
-0.05250836885123031, 0.03055535106360619, 0.00019925877518895262, 816196000000, 
-0.03596575980981428, -0.002380434420301283, -0.0001530192447055914, 816201000000, 
-0.06149714094236105, -0.01155062858212227, 0.00012637604514227394, 816208000000, 
-0.040879438461982456, -0.008269899981041278, -0.00018956210225901598, 816213000000, 
-0.05666154197675322, -0.0035799559924529507, -5.9707548533521254e-05, 816218000000, 
-0.04733969977167968, -0.007447211945363125, -6.306632472450164e-05, 816223000000, 
-0.048513935992561825, -0.0167807428368168, -1.2297566075164136e-05, 816228000000, 
-0.05215598717939359, -0.011735329063353754, -5.177625613504478e-05, 816233000000, 
-0.06572598159303004, -0.014582639363544063, 0.0002074129037802784, 816238000000, 
-0.061835165656101636, -0.037722665146912596, 0.0002190282356426969, 816243000000, 
-0.034775744811234216, -0.0010872032079272999, -7.501888007357088e-05, 816248000000, 
-0.05556729669877413, 0.015405985622057682, -0.00027195455044162135, 816253000000, 
-0.06358371430666764, -0.003351013938297737, 4.8009023520908495e-05, 816258000000, 
-0.07911696380530522, -0.0013167521539363676, 0.0001754383912583872, 816263000000, 
-0.051072548387559695, -0.013715941190715022, 0.00014902719206828853, 816268000000, 
-0.060277996042643014, 0.007765578255001026, -7.666130665051122e-05, 816273000000, 
-0.07943162040438825, 0.009792852425416975, -0.0001827719178744206, 816278000000, 
-0.04771180255146362, -0.01580553934526783, -9.38115022245751e-05, 816283000000, 
-0.03232873444927709, -0.04472480621789994, 0.00018397128743414398, 816288000000, 
-0.05376090736977266, -0.02533899272560063, 0.00016092693425088418, 816293000000, 
-0.0493232901032205, -0.009035097750050552, -4.054736724359837e-06, 816298000000, 
-0.08941548984226233, -0.03132376143974849, 0.0003484619616315317, 816303000000, 
-0.0669776516919349, -0.031819620600764986, -0.00023517027466522789, 816308000000, 
-0.02273772989083442, 0.0030226907033668684, 1.8724948696967876e-05, 816313000000, 
-0.062068153831001074, 0.005295857326466653, -0.0001815768463940391, 816318000000, 
-0.06810343966609553, 0.024139328642244537, 4.2678983871248985e-05, 816323000000, 
-0.06639536526179449, 0.035051495501603185, -0.00011497041237859651, 816328000000, 
-0.08405917054026078, -0.009418470102154528, 4.3369527830701894e-05, 816333000000, 
-0.0473557961061742, -0.007955826064271022, 6.091849669751607e-05, 816338000000, 
-0.0439209195013409, 0.03950219118722477, -8.681760751366813e-05, 816343000000, 
-0.05818401368915609, 0.004936694971153533, -0.0003219996007422233, 816348000000, 
-0.07308706692619327, 0.0019250251904191788, 0.00016813218326244361, 816353000000, 
-0.06753875449815616, 0.028298262176724688, -0.00012968378579819475, 816358000000, 
-0.05392274250156229, 0.0033306011235111617, -0.00022852325169758468, 816363000000, 
-0.06502565710267255, -0.011264754674191009, 0.00020000629798778885, 816368000000, 
-0.05448091832056886, 0.009629379506134074, -7.289715697861984e-05, 816373000000, 
-0.08487316014252176, 0.0015950563962101542, -0.00022452271251036587, 816378000000, 
-0.09192298951628827, 0.011662167803394494, 0.00010477082835420008, 816383000000, 
-0.020388610342875157, -0.0031874251952216655, 0.000248787084709829, 816388000000, 
-0.04578349285108286, -0.0046242234962143025, 0.0001745798249728794, 816393000000, 
-0.06695015427449658, -0.009512094573869818, 0.00014594496887063578, 816398000000, 
-0.05706181224411715, -0.008624281871811357, -0.0001263096385903396, 816403000000, 
-0.046142833744454666, -0.028049972757682087, 5.9612505491514814e-05, 816408000000, 
-0.04161858073347928, 0.015869031154598874, 0.000212350484337059, 816413000000, 
-0.046315324435673634, 0.004462584114530036, -6.903512831025116e-05, 816418000000, 
-0.052323866307701326, 0.05072532300232723, -0.00022349186904883835, 816423000000, 
-0.06567457490491276, -0.014721157329571391, -3.912138778816051e-05, 816428000000, 
-0.07166924920152917, 0.01383594808403759, 0.00015975656441009778, 816433000000, 
-0.038977259701952954, 0.013738397619890184, 8.656729964015766e-05, 816438000000, 
-0.05131360331323439, -0.01945563713792268, 0.00030017488765062775, 816443000000, 
-0.05403970235891879, -0.007212122811875934, 0.0001160478373482225, 816448000000, 
-0.07045365469515905, -0.0003475234961955566, 1.9967189709502712e-05, 816453000000, 
-0.03062238402838807, 0.004582985346595929, 7.019106484739164e-06, 816458000000, 
-0.05470164046200122, 0.0290271519366814, -0.00020461410715377749, 816463000000, 
-0.056283172846822986, -0.0011153577001589503, 9.09941500405347e-05, 816468000000, 
-0.04161542885056585, 0.0329192422907438, -9.982750591503539e-05, 816473000000, 
-0.041717211784782236, 0.0006849356249979977, 0.00025509452402105044, 816478000000, 
-0.03778148860820848, -0.012384953307112496, -0.0001566149906424119, 816483000000, 
-0.06623482176486728, -0.0021986648949379704, 9.705451214495246e-05, 816488000000, 
-0.03298049466511969, -0.010832999032412891, -0.0001488300825675268, 816493000000, 
-0.05718046297363985, -0.00894660526296725, 0.00017359369291360948, 816498000000, 
-0.04719997127923996, 0.01806391600599502, -6.129668432285003e-05, 816503000000, 
-0.03655072899363994, -0.025485359037973297, 5.379863377008074e-05, 816508000000, 
-0.04964515810300546, 0.030765151422383726, 0.0002310939538106886, 816513000000, 
-0.058771321696756015, -0.013415830020023115, 0.00015511911163595138, 816518000000, 
-0.03690227307852172, -0.004319846072275523, 7.156947254281956e-05, 816523000000, 
-0.05922356805295493, -0.016861872104226676, -8.441836631562836e-05, 816528000000, 
-0.05267365579385289, 0.008874986725624855, 0.0001717216470526895, 816533000000, 
-0.06048389186674732, 0.022442436003094222, -0.0003849776456106565, 816538000000, 
-0.03654348855248456, -0.02019392092834268, 5.282838321115647e-06, 816543000000, 
-0.05801446711679231, -0.006330953828490516, 0.0003654305520772776, 816548000000, 
-0.05277093470877767, 0.045009323764008805, 0.000319732824277243, 816553000000, 
-0.06262909473693382, -0.00945089890799633, -2.816592626195643e-05, 816558000000, 
-0.06440430051181895, -0.02580145535927205, 0.00014788256740991406, 816563000000, 
-0.09490450261795244, 0.006543806515560171, -0.00010021111723263778, 816568000000, 
-0.07203044749538787, -0.005439458321605738, -7.74480813229583e-05, 816573000000, 
-0.08001538149942701, -0.006239932074964863, 0.00029537359038439565, 816578000000, 
-0.06798986333091439, -0.01726497002360526, -1.855861579853154e-05, 816583000000, 
-0.05654133103688986, -0.021149253833837013, -3.695224423496538e-05, 816588000000, 
-0.05724225071826329, 0.0003885657098605316, 0.00024707969089587245, 816593000000, 
-0.08775480712808703, -0.013134210908091306, 0.0001294540207043245, 816598000000, 
-0.04678019932627919, 0.00714035666226197, -0.00041866712547364586, 816603000000, 
-0.0545452729158204, -0.02717857554178765, 6.046733125547035e-05, 816608000000, 
-0.05645723663325013, -0.0055879483535063645, -6.155972775369113e-05, 816613000000, 
-0.0664763958193162, -0.0026546913765893914, -0.00015584475235871475, 816618000000, 
-0.07856537126048088, -0.02874068843262968, 8.707963859128293e-05, 816623000000, 
-0.06840904091882546, 0.0055443806591456745, 3.649942349594012e-05, 816628000000, 
-0.05598931305160666, 0.0032821190272404118, 1.0140910823891615e-05, 816633000000, 
-0.06564362273554071, 0.0014041139760888985, 6.4737890000726e-05, 816638000000, 
-0.06146792474568007, -0.0007976409444958205, -0.00020088727370020572, 816643000000, 
-0.055021622808916586, -0.015872023430150727, 8.783741719948376e-05, 816648000000, 
-0.06766086869856743, 0.018182512461146497, -3.301662143683575e-05, 816653000000, 
-0.03755735126555812, -0.01727900040348705, 0.0001855195721511832, 816659000000, 
-0.058461845651808, 0.004554589358006551, 0.00021049203570039674, 816664000000, 
-0.025113978678319847, -0.0005155183191597705, 0.00021089271569087528, 816669000000, 
-0.08563656412738366, 0.01222408161088483, 0.00020551911249087012, 816674000000, 
-0.05147200615841564, 0.01786103977966431, -0.0002086805014320895, 816679000000, 
-0.06883095807662362, 0.006135083277483224, -3.0058748692565524e-05, 816684000000, 
-0.0698338670922503, 0.002402380578182967, 0.0001066925821316955, 816689000000, 
-0.10164070779615918, 0.018251694266936343, 0.00011051199576160334, 816694000000, 
-0.04990975441440574, 0.0020576402192964633, 0.00022307423742577544, 816699000000, 
-0.03458183620109929, 0.004852337439885644, -2.3633238050336647e-05, 816704000000, 
-0.02795696259397722, 0.009942663770003215, -0.00019380374837325577, 816709000000, 
-0.07748813575100777, -0.001938042512468977, -0.00017226938125150878, 816714000000, 
-0.05193138770663115, 0.004373864745828548, -0.00013274278576184983, 816719000000, 
-0.024125694196974377, -0.019302706602443202, -6.311597958824991e-05, 816724000000, 
-0.06465024849475284, -0.013037085124400312, -0.00019197738529266772, 816729000000, 
-0.062089094956318015, 0.01110824403814444, 0.00013298454527369943, 816734000000, 
-0.04102047081279604, 0.006102860081422147, 0.0002098257987924075, 816739000000, 
-0.0627865367962634, -0.01935827049919543, -0.0001984884449556108, 816744000000, 
-0.045292473869032436, 0.008348155055419141, -0.00027670261692267444, 816749000000, 
-0.044200980403752324, -0.005941901832259587, -0.0003377916443302822, 816754000000, 
-0.048058381995526485, 0.015834261219758644, -0.00019414198123860884, 816759000000, 
-0.06169775405935948, -0.0018897214994193852, -9.684273192652611e-05, 816764000000, 
-0.06141060814266587, -0.015042024514015238, -0.00015763161352771389, 816769000000, 
-0.0547008858240362, -0.014220955331036516, -4.875190438523257e-05, 816774000000, 
-0.04984676275624621, -0.008322893017651503, 5.653869154798205e-05, 816779000000, 
-0.06946392885181861, 0.007300667031368108, -5.729848972781591e-05, 816784000000, 
-0.07255186356524776, 0.006352329432556988, 3.293925169389259e-05, 816789000000, 
-0.1167502325191164, -0.012356973703974598, -0.0002988549660636151, 816794000000, 
-0.033765878953696184, 0.02508206028612575, -0.00019948800016977392, 816799000000, 
-0.06157439205445979, -0.023084715681308935, -1.5129116490251429e-05, 816804000000, 
-0.06669186674126136, -0.0017555042540504304, 5.3305671722078594e-05, 816809000000, 
-0.05233724544755415, -0.006287251124456235, -1.6179662212274042e-05, 816814000000, 
-0.04509075066606662, -0.01591505779853589, 0.00010332546972261904, 816819000000, 
-0.06146138062592322, 0.01781715133586108, 0.00023932260406164292, 816824000000, 
-0.08139814180520483, 0.01579013696762986, 0.0002452267842795461, 816829000000, 
-0.041136026229954575, -0.00958127725753002, -0.00020212287234584283, 816834000000, 
-0.0664596522776315, -0.016956859788650077, -4.744989189786427e-05, 816839000000, 
-0.08811397556817505, 0.005879377923414796, -7.507147000513139e-05, 816844000000, 
-0.0658439934331961, -0.04089365874874212, 3.798790835057871e-05, 816849000000, 
-0.04058470887542587, -0.014322704417313495, 3.217800506595574e-05, 816854000000, 
-0.02558735552512962, -0.009930136637776008, -0.00025906158320327625, 816859000000, 
-0.09105663584027161, 0.005478261223907467, -6.150823143672803e-05, 816864000000, 
-0.06028367277833083, 0.006470336324673225, -9.608219537548621e-05, 816869000000, 
-0.06635470263889867, -0.001269286515743658, -7.849950148888951e-05, 816874000000, 
-0.07865948869698708, -0.005763538873049694, 6.48649425396931e-05, 816879000000, 
-0.08094563896068054, -0.02928231065346311, 0.00010215612779334585, 816884000000, 
-0.0404558230109689, 0.002352941435267533, 5.3720461534770845e-05, 816889000000, 
-0.06456629663753415, -0.0006997955422796756, 0.00013496495685410916, 816894000000, 
-0.07814179850893445, 0.02066134089435897, -0.00012394702064512207, 816899000000, 
-0.04916750423484423, -0.03794591214595454, -0.0002889075660629502, 816904000000, 
-0.07625471579256506, 0.031458109794902565, 0.00036716653229108923, 816909000000, 
-0.09182389870003543, -0.00826764077096586, 0.0001328849071141782, 816914000000, 
-0.06558256964734303, 0.030114872287162527, -0.00025127937605958276, 816919000000, 
-0.036000759057583515, -0.02945285683134393, -0.0004407727433253502, 816924000000, 
-0.07226731842132153, -0.012914641795999379, 0.0002043694882431565, 816929000000, 
-0.037658208057604135, 0.0091134406002736, -0.00024664299726259953, 816934000000, 
-0.04032403126842247, -0.030413803485347498, 7.676800762935511e-05, 816939000000, 
-0.04211930153231244, -0.01085105191112085, -8.862188651343573e-05, 816944000000, 
-0.07354775214438317, 0.016341999257745505, 0.00021806104712453255, 816949000000, 
-0.04240285483645486, -0.0047473784647119885, 0.00022500661217169702, 816954000000, 
-0.03504330015824602, 0.010083016408423438, -0.0004005413413583869, 816959000000, 
-0.06848941150606823, 0.01304560581115392, -0.00019232485465688385, 816964000000, 
-0.04761430144573564, 0.019300315828379277, -8.351646720024329e-05, 816969000000, 
-0.07149356568407908, 0.0006998655922506282, 7.67501860489484e-05, 816974000000, 
-0.06345824120381315, -0.029097825254350264, -0.00024846510680072594, 816979000000, 
-0.0602621024896604, -0.03181871395025182, -6.601295195510805e-05, 816984000000, 
-0.07777154276334719, 0.001944425706416996, -2.1271638700206185e-05, 816989000000, 
-0.07034696524379629, -0.034105846829555184, 0.00013962461177809797, 816994000000, 
-0.0349693782562665, -0.004785698573620146, 0.00043584549236217943, 816999000000, 
-0.04238715601999139, 0.021935522341867592, 0.00031409281363396064, 817004000000, 
-0.06463665394835753, -0.016383930922653223, 2.903715178954554e-05, 817009000000, 
-0.0405100297239015, -0.02581727486264641, 1.0342161538855126e-05, 817014000000, 
-0.06352821280309591, -0.0002062583954460062, -7.568907388996697e-05, 817019000000, 
-0.04323721722695843, -0.026163443695795704, 0.00032671775756571553, 817024000000, 
-0.05784193921998349, -0.020510863693331355, 5.0323150646708845e-05, 817029000000, 
-0.05778135972980257, -0.010340611114096988, 1.350325084110096e-05, 817034000000, 
-0.07148047588806727, 0.010867354803565984, -0.00019861404495785074, 817039000000, 
-0.08514532415106177, -0.005671280499654322, 0.00047572721194344815, 817044000000, 
-0.07920066799427511, 0.027783858889480765, -6.281935639779369e-05, 817049000000, 
-0.024986606512825617, -0.028818861461679574, -0.00026451405795558893, 817054000000, 
-0.05928670322756693, 0.020841688339541916, -0.00033999373371500625, 817059000000, 
-0.04142101844122008, 0.0016271638101444318, 0.00022944345400601195, 817064000000, 
-0.06098876494793306, 0.02185444803677657, 3.833016025667525e-05, 817069000000, 
-0.044184886686576164, 0.014456009852425932, -0.00014550989362667157, 817074000000, 
-0.05149206383647791, -0.026049212647621497, -0.00023706954549903054, 817079000000, 
-0.05568172593863076, -0.014248522615288254, 0.0005454714674388034, 817084000000, 
-0.07205450652051443, -0.03204576787285123, -0.0002017749982376373, 817089000000, 
-0.013163824572779495, 0.0347896351434831, -0.00020017766081634533, 817094000000, 
-0.03648433701388701, -0.02309758405504282, -1.3387095832207057e-05, 817099000000, 
-0.0714596261825434, 5.557637668714924e-06, -4.82730155384541e-05, 817105000000, 
-0.0436355982767548, 0.010708977713412924, -3.2279800975499286e-05, 817110000000, 
-0.059381078675867796, 0.03338670911681537, 0.0002068968099163918, 817115000000, 
-0.053646424337391786, 0.013837571496759982, 7.491810599655088e-05, 817120000000, 
-0.0553912490391708, 0.013038724273967421, -0.00021806531125068504, 817126000000, 
-0.06511931748121352, -0.014175152562408538, 0.00046006599962409656, 817131000000, 
-0.0641032132719593, -0.007619276261364537, 7.645137757126287e-06, 817136000000, 
-0.039057203405990136, 0.01546680070890046, 0.00024552418369768673, 817141000000, 
-0.07920839405155367, 0.0062207073849761835, -0.00017395738492466986, 817146000000, 
-0.04715599467152401, 0.00623108189297615, 0.0002492167671494268, 817151000000, 
-0.023958209286685923, -0.011400182049330406, -8.29786803961521e-06, 817156000000, 
-0.07177939028975475, 0.021883101550830487, -0.0002719182767136973, 817161000000, 
-0.05439378275541343, -0.010721253631508477, 4.909237397423371e-05, 817166000000, 
-0.049579787298685625, -0.000726098108671091, 2.0739880985142845e-05, 817171000000, 
-0.04801555226943718, -0.011249309965344427, 0.0002869629133076039, 817176000000, 
-0.03404726284195552, -0.00930326902092649, -0.00010113575262302083, 817181000000, 
-0.03888713647848893, -0.02483586552366653, 0.0002725452432558598, 817186000000, 
-0.017475913332686832, 0.019819557512274235, 4.842893074250633e-05, 817191000000, 
-0.06983594304181291, 0.034296978320718145, 0.00014833107517498093, 817196000000, 
-0.0324802604645701, 0.004568462540756593, 0.00022826855082434553, 817201000000, 
-0.04850771550832473, -0.016044530046316754, -3.740635213393145e-05, 817206000000, 
-0.02666974338936883, -0.005341998050496621, 8.847377025798621e-05, 817211000000, 
-0.06366564616312535, 0.03837732792633439, -0.00014111901848062818, 817216000000, 
-0.058019223725145515, -0.03084917382552976, 8.15311206698657e-05, 817221000000, 
-0.041112024293583405, 0.0007059389522064389, -1.146573238878507e-05, 817226000000, 
-0.0706686354859933, 0.008993957760768986, -3.311175359660974e-05, 817231000000, 
-0.06634167471142888, -0.02611793946306649, 0.0003389300256412144, 817236000000, 
-0.022382814099701748, -0.019152230797420868, 6.13773161462507e-05, 817241000000, 
-0.07469965873807222, 0.0069430324064947025, -5.560684357339966e-05, 817246000000, 
-0.040466686538591694, 0.009018479507076908, -0.0001256673173708443, 817251000000, 
-0.06673773795144325, -0.03115075106858115, -0.0003288405540665403, 817256000000, 
-0.06804774335602196, 0.005203162382701434, 0.0002627940919189157, 817261000000, 
-0.062434788593752365, 0.021260620095569564, 2.6295552412807153e-05, 817266000000, 
-0.09325610166123308, -0.026461602881086375, -0.0003360722573774494, 817271000000, 
-0.0820034055434807, 0.017194753554208714, 0.00014814148594513254, 817276000000, 
-0.028035049807135417, -0.013328254778989, -9.426817738627978e-05, 817281000000, 
-0.05632200709078754, -0.016569643777016307, 0.00023900060333739514, 817286000000, 
-0.07376032374550406, 0.0010644608809356568, -0.0002090611540943414, 817291000000, 
-0.0652900935677878, -0.01924280241459029, 3.073600583184631e-05, 817296000000, 
-0.026669106044447034, -0.007956395724444374, 2.8789656916423776e-05, 817301000000, 
-0.04909754270237192, -0.036554440255103196, -0.00016220161575259155, 817306000000, 
-0.06374830174843338, 0.012467838259146422, 2.4247511002730537e-05, 817311000000, 
-0.05266766044431772, -0.013779936982414117, 0.00012118451659368627, 817316000000, 
-0.06335610215869131, 0.014789304132080273, -0.00010367325908548976, 817321000000, 
-0.07122135463229665, 0.007974179496568095, 0.0002096329855354189, 817326000000, 
-0.0529353995669274, -0.009272898922395552, 6.247633357472036e-06, 817331000000, 
-0.05010744630594079, -0.009158786711446298, 6.320929422723105e-05, 817336000000, 
-0.034224460111650076, -0.032434351966778546, -0.00015741310749852825, 817341000000, 
-0.07176148553775555, -0.004821368016729386, -9.894632577368518e-05, 817346000000, 
-0.03615418270577199, 0.0031311463615979716, 5.9635258744908326e-05, 817351000000, 
-0.07450222606238835, 0.04031882166552961, 0.00031422519701439656, 817356000000, 
-0.07725280202110639, -0.00044355079201001586, 2.7396031279599587e-05, 817361000000, 
-0.082745280473031, -0.008983255377408687, -0.00019516277808470626, 817366000000, 
-0.06537247611165789, -0.010389560206724605, 0.00039451222242742784, 817371000000, 
-0.0694072976131042, 0.007243509537701618, 0.0004425998040005084, 817376000000, 
-0.03540340591547339, 0.02189808826601486, -0.0003208329537450986, 817381000000, 
-0.09282822171408894, 0.007330626992103908, -0.0002661158537172771, 817386000000, 
-0.09047177936216466, 0.007093263082712029, -4.55131987354308e-05, 817391000000, 
-0.08978217558472178, -0.005204602591430733, 0.0001390788800583583, 817396000000, 
-0.0681143617313856, -0.013446545653493163, -0.0001334657761467408, 817401000000, 
-0.03536973818710416, 0.028809787446171204, -2.6584564696569732e-05, 817406000000, 
-0.055581582809714605, 0.0014591930710782938, 0.0001115525329522546, 817411000000, 
-0.07053227150381028, 0.005597727163446515, 8.719113958147406e-05, 817416000000, 
-0.06763382250164719, 0.009941112608465813, -4.764264827489392e-05, 817421000000, 
-0.07832439566924262, 0.011717069462073832, 0.00044745518961102163, 817426000000, 
-0.05383456208147828, 0.017545565211754714, 0.0002145835730892399, 817431000000, 
-0.05078127211991651, 0.01298900347317287, -0.0001316628501079575, 817436000000, 
-0.05645855299606332, -0.004163245070260339, 0.0001503324917817556, 817441000000, 
-0.06678638766125103, 0.009587506982090923, -0.0002221581576018594, 817446000000, 
-0.06456657680316365, -0.007808154628913702, -3.1522710525450034e-05, 817451000000, 
-0.055727922277342315, -0.013478677610478154, -0.0002975820826739079, 817456000000, 
-0.07277396552399874, 0.010050282486661295, 0.00014938367932817463, 817461000000, 
-0.04358875055036075, 0.0037653703885405098, 4.547229545735781e-05, 817466000000, 
-0.06708703257988406, 0.02299830868370598, -0.00015936179335151302, 817471000000, 
-0.08192783246621245, -0.009402252863810015, 4.2995531900924893e-05, 817476000000, 
-0.03506014601680091, 0.00835242912246332, -6.226915480372223e-05, 817481000000, 
-0.07640251227870187, 0.01047094280365985, 0.000324647599383205, 817486000000, 
-0.03644257138724387, 0.022422308923311617, -7.913153038555123e-05, 817491000000, 
-0.03387368969129184, -0.0026009600798979626, 0.0001877410602001292, 817496000000, 
-0.054586322475590116, -0.00415806008056421, -5.985873148651299e-05, 817501000000, 
-0.05895559130940392, 0.010358863781583705, -0.00011878106265618258, 817506000000, 
-0.0607087283873245, -0.043724775486650526, 0.00019608585233472234, 817511000000, 
-0.05484814227672555, 0.03614542306310055, -0.00018830191226316856, 817516000000, 
-0.05451830457252618, 0.011919214141327843, 8.301009179186037e-05, 817521000000, 
-0.05150536395591039, -0.0032290156677029147, 6.387089247612051e-05, 817526000000, 
-0.0444279856481749, 0.02809205234077536, -0.00023396772456897526, 817531000000, 
-0.060864689110390786, -0.014257434760098244, 8.248925044757411e-05, 817536000000, 
-0.05297872385252321, 0.02892873942710777, -0.00027712558200699205, 817541000000, 
-0.053816127236090465, 0.02004116449021389, 0.0001933883685640652, 817546000000, 
-0.035575223935400475, -0.00690409040937357, -4.913115503466063e-05, 817551000000, 
-0.03551406236122455, 0.006529539033725466, -2.5510908852538758e-05, 817556000000, 
-0.0685867228311423, -0.023361137721554112, -5.6605904518531904e-05, 817561000000, 
-0.05003594296336418, -0.002410390339178566, -5.9747237447889675e-05, 817566000000, 
-0.07767820374445557, -0.011705941868237058, 0.0007065186010819557, 817571000000, 
-0.05661717976235085, 0.026636720187928332, 4.573083111189085e-05, 817576000000, 
-0.06751917167072277, 0.0262359932375463, 0.00013188832648413878, 817581000000, 
-0.03792683830505074, 0.0018346840862678037, 0.00016803282139961215, 817586000000, 
-0.052917199343258635, 0.017539229332043403, 1.9108970052105202e-05, 817591000000, 
-0.04591899608490179, 0.005887012312827558, 4.8200928538413746e-05, 817596000000, 
-0.03370683569028268, -0.036880866093482755, -0.0003660699079705679, 817601000000, 
-0.0555094848922835, -0.0049137747564025535, 2.6860710941154458e-05, 817606000000, 
-0.05092896378679757, 0.016878162340540306, -0.00014610227826200792, 817611000000, 
-0.03197588918326083, 0.006064853001464821, -2.508977348833187e-05, 817616000000, 
-0.03663765260279059, 0.009710608496310624, -2.0902653298919625e-05, 817621000000, 
-0.06633974626862385, 0.025243827900374157, 0.0003099716211342638, 817626000000, 
-0.09530473840131745, 0.00043064149458554044, -3.035782984883542e-05, 817631000000, 
-0.06124227678209251, -0.047118930850550945, 5.6665874851615454e-05, 817636000000, 
-0.07876024641844102, -0.004404344734527582, -0.00033263282938921103, 817641000000, 
-0.04351098055688477, -0.0025261107548433743, -0.0001142372791293386, 817646000000, 
-0.05146525189336379, -0.010790155491308847, -0.0002678203923808524, 817651000000, 
-0.05720002263490712, 0.01923987503439287, 6.0128628835259496e-05, 817656000000, 
-0.030384068953668776, 0.010251872752112067, 2.3626630971921745e-05, 817661000000, 
-0.053025525024111585, -0.015140481741379466, -6.8594557924792824e-06, 817666000000, 
-0.05970303300637047, 0.03062312091166476, 0.0003939744611683493, 817671000000, 
-0.03564538020450467, 0.005425185713111332, 9.836194950206045e-06, 817676000000, 
-0.08068282607367186, 0.0001655625159029799, 0.00015153024311285264, 817681000000, 
-0.04812779144947721, 0.006485148892682693, -5.836157103603099e-05, 817686000000, 
-0.04285114692718592, 0.024595059869479314, -8.670459061534607e-05, 817691000000, 
-0.0722872593822428, 0.003925005147610347, -3.883236435001825e-05, 817697000000, 
-0.04275297671223792, 0.025685756550589793, -1.4401118341552958e-06, 817702000000, 
-0.06503356780342873, -0.03753345017516405, 0.00012079050469010203, 817707000000, 
-0.005060906659008345, 0.004479914640727782, -0.000343865359895947, 817712000000, 
-0.08158094878153581, 0.02787664781219377, 1.4190303222995313e-05, 817717000000, 
-0.05884369845784539, 0.04005565676431756, 3.692275271091375e-05, 817722000000, 
-0.061873731170540146, -0.012374476249610704, -0.0004510773341523731, 817727000000, 
-0.054158098699390596, 0.03826279217323664, -0.00017126547548719753, 817732000000, 
-0.04506020157189615, -0.03295757846496553, 0.00019934566730360942, 817737000000, 
-0.08350953477032702, 0.03641340513480231, 9.214789513384885e-05, 817742000000, 
-0.041250329954920735, -0.003881087971259074, -0.0003523710498529751, 817747000000, 
-0.05555109211807038, -0.013151627156409251, 0.0005044149908524137, 817752000000, 
-0.055849670551724254, -0.015906818106406793, 0.0002166611040531429, 817757000000, 
-0.06820953102141977, -0.00818422500358683, -0.00015573459953946168, 817762000000, 
-0.07894097123777276, -0.010567141916932232, 0.0001939098425248212, 817767000000, 
-0.0335390034566482, 0.026335260570057285, 0.00019063859945620288, 817772000000, 
-0.06262784326977663, -0.031178998638588366, 0.0002148262236767034, 817777000000, 
-0.056633836284947746, -0.011992414183239309, -0.00024078930841938258, 817782000000, 
-0.07369290395675486, 0.006565702979899021, 1.7366474422220028e-05, 817787000000, 
-0.06857871872305302, 0.02961960795572164, -0.00041444581955581145, 817792000000, 
-0.05083382590725739, -0.01498435041436458, 0.00013757534480843525, 817798000000, 
-0.075366433318761, 0.03238208304991986, -1.216744403388217e-05, 817803000000, 
-0.048255727227841536, -0.008268343751155493, 4.0347556903721065e-06, 817808000000, 
-0.06554707068396953, -0.014381961515930988, 0.0002001126488744978, 817813000000, 
-0.03550527918507082, -0.012917319459303963, 3.653338909962369e-05, 817818000000, 
-0.05120157352916424, -0.0034719182890509837, -0.00030587827318347735, 817823000000, 
-0.05490650907227587, -0.019625462914339947, -0.0001757408962548553, 817828000000, 
-0.06696025749912608, -0.008794698388691178, 3.48420519068564e-05, 817833000000, 
-0.06511005039602429, -0.013467444247979653, -0.0002994441632093716, 817838000000, 
-0.07543084019370845, 0.045554748889919165, -0.0003105413609088475, 817843000000, 
-0.042540492787725884, 0.002459388645751689, -8.94281501894834e-06, 817848000000, 
-0.08090762516902344, -0.012788722131181556, -0.00043552049792591714, 817853000000, 
-0.06284450459932651, 0.007261705226230708, 0.0004785612451937876, 817858000000, 
-0.058833128267165205, -0.01598664054246628, -2.1076458262889336e-05, 817863000000, 
-0.07767855438173277, 0.024220773577506658, -0.00010223378906784607, 817868000000, 
-0.08242521171775037, 0.0210968044510753, 0.00033810793240943713, 817873000000, 
-0.07415686532895241, -0.006057611856753671, 2.965650827037775e-05, 817878000000, 
-0.042605351167811306, -0.008241983322170306, 0.0003036254400960872, 817883000000, 
-0.05399124377999283, -0.036266983220234666, 5.040341548790805e-05, 817888000000, 
-0.08335622690405442, -0.003205381872785783, 0.00022330302653466785, 817893000000, 
-0.027674458552570697, 0.018420508330579847, 0.00024793921319871565, 817898000000, 
-0.0682565672028071, 0.005450056857001708, -0.00020435199992916805, 817903000000, 
-0.04878888638689433, 0.006105889977737668, 2.4322966330966304e-05, 817908000000, 
-0.07920436023357459, -0.00025173528697216023, -0.00025672007289422407, 817913000000, 
-0.03519732590938644, 0.007058232411885166, -0.0004004312232792438, 817918000000, 
-0.07491452945241261, 0.030844386515511545, -0.00032553467816475335, 817923000000, 
-0.07099279417921364, -0.0066044186722809765, 0.00011230625667105509, 817928000000, 
-0.06559347440561251, 0.00015405907313497432, 0.00010478950512894376, 817933000000, 
-0.046940171684770784, -0.007439795715624023, -0.00014044711296372695, 817938000000, 
-0.06673483543361809, 0.017125913661853755, -0.00015931407650595088, 817943000000, 
-0.0776593455362046, 0.005006139578254414, -0.0002555432100599869, 817948000000, 
-0.06707631529612365, -0.0001111107749861191, -0.0002483771774438027, 817953000000, 
-0.07828685956886873, 0.010345159229832151, -3.491999211658199e-05, 817958000000, 
-0.0734132414867549, 0.0018923671944944946, -0.00012851929512161953, 817963000000, 
-0.03032111968606891, -0.001924356937726327, 9.779602809353825e-08, 817968000000, 
-0.06692513013445384, -0.006941561178177289, 0.00046647044038806686, 817973000000, 
-0.054776018833720554, -0.012491533555110198, -2.112893603062744e-06, 817978000000, 
-0.05429985338633582, 0.018364084907997673, -0.0002367712970439185, 817983000000, 
-0.04384376675811423, 0.03554466474416106, 0.0004319811553450816, 817988000000, 
-0.09932962332885595, 0.00995621062014594, 0.0004780316922107323, 817993000000, 
-0.07759734042064162, -0.008720302200651325, -6.462496609775324e-07, 817998000000, 
-0.06417698578939278, 0.004935375231219088, -0.0003223236847906609, 818003000000, 
-0.04426654745316643, 0.004545182175994002, 0.00038148599873442045, 818008000000, 
-0.036630495770144586, -0.008308886815695705, -7.433107742353903e-05, 818013000000, 
-0.05991837428382495, -0.015539841397603145, 0.0002879174221369406, 818018000000, 
-0.0526604678737922, 0.03334767331173981, 0.00023807369514600217, 818023000000, 
-0.0703431560734126, -0.021232432421054406, 0.00022300825705922858, 818028000000, 
-0.03908926752607546, 0.030519312815798925, -0.00022294430281947616, 818033000000, 
-0.03397908850103197, -0.003565722088406411, 0.00022440402742852914, 818038000000, 
-0.08778519463199413, -0.015273116578371139, 9.226824686615369e-05, 818043000000, 
-0.027209836920170042, 0.008337852179051777, -0.00014085814208372833, 818048000000, 
-0.057130242345677075, 0.006544638141340783, -0.00024693491366673583, 818053000000, 
-0.03634347731049175, -0.01164617471041748, -4.355030791016125e-05, 818058000000, 
-0.08292602871204735, 0.01319510285355066, 0.00013568513219148007, 818064000000, 
-0.059748783908814045, 0.004141036667602959, 6.615273951770815e-05, 818069000000, 
-0.036282216181763194, 0.0266172389042632, -0.00033084073447539657, 818074000000, 
-0.03750272802792695, 0.015217408765482604, -5.023593628615705e-05, 818079000000, 
-0.06117120877902085, -0.014261438854013835, -0.00021122132729009562, 818084000000, 
-0.06867519944251034, 0.0050505479766752015, -0.00010372196767651743, 818089000000, 
-0.07827308564110871, 0.04413805449259002, 0.00011899289844091277, 818094000000, 
-0.05381176359192992, -0.022535190669837824, 0.0001531560070477408, 818099000000, 
-0.04911551456269328, 0.009136385616510515, -0.00016967020042498213, 818104000000, 
-0.04758901267256624, -0.014639368710060231, -0.00014213750351217008, 818109000000, 
-0.08554277920362258, 0.012731455948933065, 8.808819160547505e-06, 818114000000, 
-0.03229465193615495, 0.015647533715296712, -2.939694624654171e-05, 818119000000, 
-0.06563591071420015, 0.013106584945619577, -3.03513391967786e-05, 818124000000, 
-0.10399202866672572, -0.0017734306815065774, -5.6199010559928225e-05, 818129000000, 
-0.055325914731616244, -0.0007003233450028316, 6.336801872796865e-05, 818134000000, 
-0.0763695555104335, 0.016409212067874473, -0.0003749019002294893, 818139000000, 
-0.08760565868789846, -0.008071545209660714, -0.00029136025256806087, 818145000000, 
-0.09687868956830528, -0.016555485853280812, 0.0001287389926663816, 818150000000, 
-0.07221514207185753, -0.0007181277684587598, 1.1946740689215435e-05, 818155000000, 
-0.0785015113006922, 0.022494775896867613, 0.00026884770218452457, 818160000000, 
-0.06703811237880831, -0.04768130831171122, -5.0060402294039497e-05, 818165000000, 
-0.03551356797098881, -0.028136796924218735, 7.931649345400668e-05, 818170000000, 
-0.08738206658812445, 0.0015297385682923896, 0.0002979198476971722, 818175000000, 
-0.03971151509351459, 0.029816809947373887, -0.00016011263309439282, 818180000000, 
-0.07072174237328156, -0.032256345711222226, -5.332550364916516e-05, 818185000000, 
-0.0763699165231296, 0.005722001558664053, -0.00016792820746392388, 818190000000, 
-0.08183866183068556, 0.01037503219099105, 0.0002890762935479339, 818195000000, 
-0.037006675296983, -0.016126508607419553, 0.00017821872241843766, 818200000000, 
-0.06496428056179607, -0.022791142008265212, 6.634186635947696e-05, 818205000000, 
-0.05897933922494083, -0.0013137619377320705, 0.00014354484846765023, 818210000000, 
-0.07856897425571974, 0.03537634019935996, -0.00022195742445274482, 818215000000, 
-0.08087808039889213, -0.0019082283240797779, 0.00015062810027278151, 818220000000, 
-0.06645650803608504, 0.02712722210768877, 0.00015472478484192573, 818225000000, 
-0.054449481980390034, 0.01217432804997299, 0.00021683742556727792, 818230000000, 
-0.06708800046083137, 0.009101872221199589, 0.0002416497444791856, 818235000000, 
-0.03933486141763455, 0.007494962319539532, 0.00044588662245896577, 818240000000, 
-0.06404085001224946, -0.02510115174672894, 0.00027305453897822116, 818245000000, 
-0.053052558502139004, 0.02264242612561589, -0.00035372964084906414, 818250000000, 
-0.040330260549360494, 0.024892189636996225, 0.0003806236285697013, 818255000000, 
-0.045133761896376474, 0.017418708089828597, -6.041238570275638e-05, 818260000000, 
-0.037212367358760656, 0.010902740293830527, -0.00020705960944890104, 818265000000, 
-0.08053076135505091, -0.0389270791088355, -0.0002010833736367184, 818270000000, 
-0.07251166531911772, -0.007840282338682602, -9.333301706444046e-05, 818275000000, 
-0.06403330427814655, -0.005179246122536495, 6.051696217542724e-06, 818280000000, 
-0.06813005023639565, -0.00034476453037403615, -0.0002722080228550385, 818285000000, 
-0.07041121998587696, -0.04072906283105241, 6.545316074699369e-05, 818290000000, 
-0.038955993507673425, -0.006002148415127966, 0.00028848528222449567, 818295000000, 
-0.08366046910164791, 0.014645815539902154, -0.0002779471986025725, 818300000000, 
-0.04359702428457206, -0.016418851273985853, 1.9830332887578547e-05, 818305000000, 
-0.044895123312558495, -0.01431468630289544, 0.0002518645258994117, 818310000000, 
-0.061491309894922255, -0.02126282205555533, 0.00019694161963093972, 818315000000, 
-0.07777163615953497, 0.00969498080691244, 0.0005011873119208944, 818320000000, 
-0.055076469229324805, -0.00042123040437900216, 0.00022547723196682012, 818325000000, 
-0.033359091821805825, 0.013099613489005986, 0.00023934486901819787, 818330000000, 
-0.06669546940858635, -0.020678633320157395, 6.0850202202117885e-05, 818335000000, 
-0.06942324701321745, -0.023199395892636594, -5.408334580887371e-06, 818340000000, 
-0.05147500726399619, -0.03857920690041466, -9.56947264821346e-05, 818345000000, 
-0.06885753625123411, -0.00044829294688291353, -0.0002557945554341594, 818350000000, 
-0.05167000462377091, 0.02463598488954784, 0.00026492519044469696, 818355000000, 
-0.07029095448419652, 0.0021884272076238987, -3.9248398829369725e-05, 818360000000, 
-0.04251775699510911, 0.008971753063706744, -0.00011140821125418724, 818365000000, 
-0.04904371688502368, -0.022053399933203863, -2.3449174305972048e-07, 818370000000, 
-0.07991647509098108, 0.01340349271185711, -6.12421986269199e-05, 818375000000, 
-0.030292469430690624, 0.023106241744846462, -0.00025808681419358753, 818380000000, 
-0.06137301692795766, -0.0239947444119886, 8.308005285828745e-05, 818385000000, 
-0.030394759918023324, -0.02076240089757062, -0.0002036078715103346, 818390000000, 
-0.05819339649462831, -0.004125391719157949, -8.006696551980719e-05, 818395000000, 
-0.05570166487953302, -0.01941054700056837, -0.00011324394324115649, 818400000000, 
-0.05008728252206156, -0.00908664231347714, 0.00011427280200841327, 818405000000, 
-0.054754394819978014, 0.00706252951953046, 0.00016888596462459596, 818410000000, 
-0.056115434749964464, 0.006921295242963157, 0.00015916932597774327, 818415000000, 
-0.06175076059987139, -0.0004298737217864085, 0.0002732098795656651, 818420000000, 
-0.05836510917460324, 0.029512404177386372, 0.00015701559011003567, 818425000000, 
-0.06522577535193295, 0.004588680325805847, 6.692709747665957e-05, 818430000000, 
-0.05305716722979328, 0.04351007160384093, -3.1695272660228914e-06, 818435000000, 
-0.028719944428210728, 0.011866377335356854, 0.0003036567204831059, 818440000000, 
-0.06092191569060354, -0.0009027930293869469, -0.00024951565080424124, 818445000000, 
-0.06211392370213654, 0.0009008187682575475, 0.00033783274287731054, 818450000000, 
-0.05924304162172467, -0.0038435979523453352, 0.0001280386124992674, 818455000000, 
-0.068591990258403, -0.006526308164503273, -0.0003040926041228551, 818460000000, 
-0.08531116656631083, -0.013420469223375935, -0.00028114195224348366, 818465000000, 
-0.024007405716900847, -0.0037311156709608833, -0.00010471152882013526, 818470000000, 
-0.04497457124092423, -0.002076375783952928, -0.0002805524558496329, 818475000000, 
-0.05010437766036782, 0.0075025355656260515, 1.5353863648130893e-05, 818480000000, 
-0.06853373306311888, 0.0018510478009696745, 0.00016818753859979498, 818485000000, 
-0.0793231278411188, -0.00893713221064465, -5.1658371599847856e-05, 818490000000, 
-0.03616400341981599, -0.018328409270065987, -0.00012860357521287438, 818495000000, 
-0.039190035413746396, 0.0066007733732856315, -6.18791854814503e-05, 818500000000, 
-0.051639098033692696, -0.0045042875125471445, -0.00015022267358611615, 818505000000, 
-0.04408228391106516, -0.00463011460317316, -0.0003298909506401015, 818510000000, 
-0.0628088396885967, 0.001042174978032895, -0.0001605649069170204, 818515000000, 
-0.06765216651995581, -0.011691412827476301, -8.674165352053058e-05, 818520000000, 
-0.05239523785775437, -0.02108395145006833, 9.094024359234665e-05, 818525000000, 
-0.04552753476936548, 0.01681185434504694, 0.00016933275922026178, 818530000000, 
-0.02901645784825559, 0.00831995356897319, -0.0002444480459347157, 818535000000, 
-0.037508627876930045, -0.021263319757649203, 0.0002888523457916456, 818540000000, 
-0.07436947812401587, 0.01740369255793227, 1.2387368126549765e-05, 818545000000, 
-0.0642961414822524, -0.008413626632774014, 0.00030131858980513606, 818550000000, 
-0.02703513208232441, 0.020040985696944968, 0.00017476458828731968, 818555000000, 
-0.06258451981551391, -0.012948602222887946, -0.0003898815941456881, 818560000000, 
-0.04704288283526326, -0.003793202189786263, 0.0002901292478608173, 818565000000, 
-0.07598591966926269, -0.003800319136512676, 2.7453643583187756e-05, 818570000000, 
-0.07418415027933215, -0.011296683882365042, -0.00031382696998999123, 818575000000, 
-0.027863537351284346, 0.011065921184238844, 6.242645088790067e-05, 818580000000, 
-0.07000884565745658, -0.02446539832041087, -0.0003344622758331655, 818585000000, 
-0.0756714757173325, 0.0017657031372140257, -0.00013700693340156577, 818591000000, 
-0.07324105197400282, -0.0014783169723409002, 6.362738667888186e-05, 818596000000, 
-0.06276439738426182, -0.008214640320588962, 0.0002769015060098103, 818601000000, 
-0.002743400658024163, -0.014781186358884642, -4.1100752965524915e-05, 818606000000, 
-0.04917737208468724, -0.017415947769308708, -0.00023652693686900995, 818611000000, 
-0.04766578918558399, -0.007272416438415527, -0.0003280385943407933, 818616000000, 
-0.027536849606236584, -0.030130880818487568, 8.245849457281952e-05, 818621000000, 
-0.0396454509202847, 0.006551215740218996, -1.139337434402249e-05, 818626000000, 
-0.05934298281616262, 0.004102063083459342, 6.699369934646639e-05, 818631000000, 
-0.0571064407194652, 0.0019506638122869391, 0.00017500816705644256, 818636000000, 
-0.05742111546660372, -0.02334482183985253, -8.838522592024985e-05, 818641000000, 
-0.0673199269368355, -0.030089406887229213, 4.8974475142324645e-08, 818646000000, 
-0.07744224547259851, -0.011885320742967612, 6.441599562883185e-05, 818651000000, 
-0.08456855658344677, 0.03820559187673091, 0.00022828553052296326, 818656000000, 
-0.06988995389105677, -0.01529019783614605, 0.00014950897788223492, 818661000000, 
-0.062274620537669245, -0.0023411810749612762, -0.0002497105287656598, 818666000000, 
-0.08537017312947913, -0.005512894531975998, 0.00022143658609026043, 818671000000, 
-0.06521937048244521, -0.004799552706462311, -2.5694541555936006e-05, 818676000000, 
-0.09187274640622771, -0.015734315887720347, 0.00011655664730037502, 818681000000, 
-0.08138725492385743, -0.01287179865391505, -0.00016087705565974645, 818686000000, 
-0.08429850571005157, -0.009262999190493962, -0.0003252906561953171, 818691000000, 
-0.04996354178797693, -0.03181201331658647, 0.0002294425532490803, 818696000000, 
-0.06766209844213582, -0.022554767287424185, 7.133162420567116e-05, 818701000000, 
-0.043501859827089394, -0.003521939631086971, 3.456387180872249e-05, 818706000000, 
-0.04125773580765947, -0.01306683760363913, 0.00038200808668511, 818711000000, 
-0.056849882982805224, 0.03665981730466904, 0.00012011694078253258, 818716000000, 
-0.07092859647165842, -0.004258463217589268, 0.00023159100092274502, 818721000000, 
-0.038713622915022346, 0.006712528363891386, 0.00015754620812626758, 818726000000, 
-0.0823043346800039, 0.0008492043133410881, 5.8507226003806335e-05, 818731000000, 
-0.059879845741559426, -0.001605777115056521, -0.00016198557257628894, 818736000000, 
-0.028699917043061855, -0.026316370819352054, 0.0002141621538903372, 818741000000, 
-0.03303426527886081, 0.010164356402294383, 3.277875883364518e-05, 818746000000, 
-0.05164120927854976, 0.005238166234404666, 0.0001449871981502594, 818751000000, 
-0.08517501586400097, -0.0019295594007920729, 3.172457996952354e-05, 818756000000, 
-0.06435573016776305, 0.025357095851499836, -0.00012647155599852098, 818761000000, 
-0.05094251382403243, 0.003440591762401352, -1.4793528061624493e-05, 818766000000, 
-0.06677568464108558, -0.013698574895114463, 0.00017586660957721311, 818771000000, 
-0.04947957935196375, 0.009193849765399175, 0.00029855106251652655, 818776000000, 
-0.06500205990892666, 0.030106823793234573, 0.00021338978115294373, 818781000000, 
-0.024937253829958032, -0.019161472901894655, 0.0001714978501990177, 818786000000, 
-0.03886617508703183, -0.005280797347102443, -0.0002847679092682194, 818791000000, 
-0.09699214772332052, -0.0006641978334580473, 8.850581811284912e-05, 818796000000, 
-0.06606953614576995, -0.00314384434240169, 7.761952319337896e-05, 818801000000, 
-0.06307592217966963, -0.010072241131111928, 0.00019269789129973844, 818806000000, 
-0.08839728751217248, 0.0063625360062153245, 9.393427128337619e-05, 818811000000, 
-0.07758403237692241, -0.012913596122085418, -0.00024284773523204075, 818816000000, 
-0.07414999720097791, -0.031245910856836846, -0.00015184337606264687, 818821000000, 
-0.04215378536927055, 0.0009178391274977997, 3.867935549739727e-05, 818826000000, 
-0.07049817433229061, 0.006742105289627694, 0.00023920539955617836, 818831000000, 
-0.041350864324028944, -0.0019741955851492847, 9.204840453382561e-05, 818836000000, 
-0.0711870519003776, 0.023215194427022193, -4.657179226379189e-05, 818841000000, 
-0.07850887144082083, 0.010118682050244666, 6.329786072564821e-05, 818846000000, 
-0.06613063959067167, -0.016414276937489355, 5.762337717062116e-05, 818851000000, 
-0.04360397300213765, -0.014160668155004557, 7.115069204293761e-05, 818856000000, 
-0.06616387720281892, 0.026902569685108575, -0.0001502575168295047, 818861000000, 
-0.0351491509422337, -0.006682826400151686, 5.6060160475924516e-05, 818866000000, 
-0.03982838772609326, 0.004322954705848987, 0.00042897001006369785, 818871000000, 
-0.06447866473338787, -0.016325476201265218, -0.00015604353346985566, 818876000000, 
-0.061905932351794896, 0.0024204072206226207, -0.00012466536675970625, 818881000000, 
-0.06664486996774686, 0.02516150148691565, -0.0003973690792694037, 818886000000, 
-0.08446922002366677, 0.02696268453164753, -0.00026571221528941177, 818891000000, 
-0.05381411009802374, -0.02783291536194778, 0.00022182714355083947, 818896000000, 
-0.10197426049456776, -0.006303352637388339, 3.801392852560405e-05, 818901000000, 
-0.07120834685690426, 0.0024406563441424596, 0.00026898255072937483, 818906000000, 
-0.08512844311274952, -0.016973869324599867, 2.3761047790324735e-05, 818911000000, 
-0.03435992653708075, -0.009671110016054507, 0.0002980729223245067, 818916000000, 
-0.06482068747298901, 0.013309602859239886, -0.00041008163156154044, 818921000000, 
-0.04041791421487455, -0.022709963590373836, -0.00037374637472516376, 818926000000, 
-0.06440490490001559, 0.011367083976260843, 4.0106850837630845e-05, 818931000000, 
-0.02201817300283122, 0.01498360317783026, 2.3031221498121284e-05, 818936000000, 
-0.05915485459010314, -0.00969148606548799, 0.0005145581432101062, 818941000000, 
-0.08035540390394474, 0.01898881646169335, -0.0002138703835668884, 818946000000, 
-0.0657747099768965, 0.013330892412544528, 3.6562195055059324e-05, 818951000000, 
-0.06758555717763426, 0.0245902627890794, -1.234644369181501e-05, 818956000000, 
-0.05040340161962891, -0.018896644808723457, 0.00016048794656797074, 818961000000, 
-0.026162023026228276, 0.02371960886691151, -0.000423974877789904, 818966000000, 
-0.049958333782095916, -0.005992842108827661, 5.9407524411020016e-05, 818971000000, 
-0.08466754396806814, -0.03875759402414281, -7.66510782343105e-05, 818976000000, 
-0.05129002481096371, -0.015449855564722661, -0.00013339053578345164, 818981000000, 
-0.040777642158692014, -0.008449968476810257, 0.0003128512408378149, 818986000000, 
-0.041421521769054226, -0.01141441658567287, 2.31840916382411e-05, 818991000000, 
-0.033735415198830554, 0.006722305029486981, -8.071458719753287e-05, 818996000000, 
-0.026690247874184402, -0.009105397180753816, 0.00010105688242370614, 819001000000, 
-0.04715626602422555, 0.00860655800477157, -0.00024364777080842167, 819006000000, 
-0.0408952597495787, -0.007586625403894215, -9.303775821472939e-05, 819011000000, 
-0.08559120296276848, 0.010266150738417601, -2.045061983519138e-05, 819016000000, 
-0.040817466970308434, 0.006231378080010341, 0.00021902118298143308, 819021000000, 
-0.04886675463294259, 0.04177694214279718, -0.0001283992603306641, 819026000000, 
-0.06759374460887924, -0.005738262434454962, 9.47842288376964e-05, 819031000000, 
-0.0763082775500603, 0.007850581487137458, -0.00022855081235123007, 819036000000, 
-0.06581651815176884, -0.012262493519984811, 0.00017793794461393305, 819041000000, 
-0.057571335871704946, 0.0012042088366291763, 0.0003596652608232651, 819046000000, 
-0.057139981850316914, -0.011520354731430057, 0.00010404349764183985, 819051000000, 
-0.07225426577917485, -0.00345353313668984, -6.768543335328768e-05, 819056000000, 
-0.07003372610009817, 0.007439468623934847, -0.00025951054932154063, 819061000000, 
-0.043891169098504636, -0.022810623855834225, -0.00022993535361651334, 819066000000, 
-0.054169755862372895, -0.008791348452622192, -0.00011549934686650061, 819072000000, 
-0.04968794969692204, 0.01327318853665072, -8.785684554656357e-05, 819077000000, 
-0.10332549419814235, 0.0021718285736983325, 0.0001518420768027379, 819082000000, 
-0.027689149434281045, -0.008695592242154188, -1.5236934996271472e-06, 819087000000, 
-0.07672830190125862, -0.004786992010762037, 0.00023334448056047116, 819092000000, 
-0.06648650511758916, 0.03717785914009488, -5.9850243664730006e-05, 819097000000, 
-0.05715242656260052, -0.02170392235690129, -0.00010294904071979905, 819102000000, 
-0.08214214348481007, 0.018634300176962548, 5.9549173244112795e-06, 819107000000, 
-0.02232791961524095, -0.01059184718880776, -0.0004954558283049364, 819112000000, 
-0.06446213625894764, -0.026638531354097897, -0.00012986465598757122, 819117000000, 
-0.041870579887662795, -0.004186487739058479, 7.550054534710223e-05, 819122000000, 
-0.04087974828784025, 0.016851400306419264, 1.2179253319466047e-05, 819127000000, 
-0.0872756296747064, -0.007016866283260299, 8.350292982455238e-05, 819132000000, 
-0.08092661203000762, -0.011438810133409354, -0.0002823805931154053, 819137000000, 
-0.04987587820199034, -0.008451549309273275, 0.00021737840791929714, 819142000000, 
-0.05815322713196686, -0.014934611427750358, -0.00013675833223622357, 819147000000, 
-0.07028587353518789, -0.00904534842851764, 6.0865639813738666e-05, 819152000000, 
-0.08427035925720909, 0.019109047090639025, 0.00023835263002830196, 819157000000, 
-0.025230955177780633, 0.014301727316632793, -0.000437111501099066, 819162000000, 
-0.04475816182755854, -0.034096615663034784, 0.0003962009435511925, 819167000000, 
-0.055226001943194825, 0.013575416872029249, 0.0002298522876147306, 819172000000, 
-0.051902078783232566, -0.014901606504485689, -0.00031339646571853374, 819177000000, 
-0.05435714257395964, 0.013381633605654385, 0.000412066504658423, 819182000000, 
-0.08240683626105046, 0.028833001478175524, 0.00022860203344571465, 819187000000, 
-0.05979615365245257, -0.0009659499906721155, -3.6430163081036456e-05, 819192000000, 
-0.040485004714988115, 0.051840954373757415, -0.00013666854836698965, 819197000000, 
-0.05486488868396072, 0.0018790458006664608, 0.0001959332029505059, 819202000000, 
-0.058602117854478705, -0.01563597963931171, -1.311011948501556e-05, 819207000000, 
-0.04139325413202312, 0.004212226263128701, 0.0001577848810037631, 819212000000, 
-0.0358716261984505, -0.021999608911422254, 0.00026829619341702665, 819217000000, 
-0.03798679252540551, -0.0256848880710495, 0.000130900417630118, 819222000000, 
-0.09035742982814152, -0.004716410261328784, -6.629854685093812e-05, 819227000000, 
-0.06456005400138448, 0.0046949450348135425, 1.3992556649580921e-05, 819232000000, 
-0.02236231734811469, 0.014441175301379776, 8.479284103408833e-05, 819237000000, 
-0.08246335871369478, 0.02504975955849589, -4.9954299508012714e-05, 819242000000, 
-0.047918361157903565, 0.0275022367967466, -0.00019159065985588274, 819247000000, 
-0.07055060502265978, 0.008590284830674196, -0.00020629617420244597, 819252000000, 
-0.06460658842668188, -0.01360236329176035, -0.00022998215618224942, 819257000000, 
-0.055224954371205726, -0.015077021670396531, -4.333340900667647e-05, 819262000000, 
-0.0480439591835344, 0.0026872076047121966, 0.00011796077069424757, 819267000000, 
-0.016112816499342264, 0.02728624703276205, 8.86914779467355e-05, 819272000000, 
-0.059051883591582977, 0.008474192825639059, -9.574075295427685e-05, 819277000000, 
-0.04442636468194176, -0.03784229767006714, 0.00020225263498670294, 819282000000, 
-0.02711417676149793, -0.0008295689224906895, -5.2509321875225226e-05, 819287000000, 
-0.037629900412203085, 0.0025882021833670723, 7.830776216363144e-05, 819292000000, 
-0.07457886560159671, -0.005489199310737732, 6.649860235873579e-05, 819297000000, 
-0.046864040214675586, 0.012434487000897537, 4.822734186924179e-05, 819304000000, 
-0.07090236530955729, 0.02820830750993403, -6.248245040133782e-05, 819309000000, 
-0.04760439972313189, -0.007653881341941027, 0.0002329564284816564, 819314000000, 
-0.067852024127316, 0.003344250115340828, -0.00041981000025300276, 819319000000, 
-0.04390593072776032, 0.02064243839342274, 5.348601287841381e-05, 819324000000, 
-0.07033522811602166, -0.024726106171667157, -0.0003475067329549257, 819329000000, 
-0.043149230527503676, -0.018940978978339334, -0.0003208743445789481, 819334000000, 
-0.06364017481907606, -0.00010958112501723992, 2.1672144657218846e-05, 819339000000, 
-0.048842935461520326, -0.010060116941442144, 0.0001224876374523884, 819344000000, 
-0.04088688326800697, 0.018858616870427197, 0.00011121474762607321, 819349000000, 
-0.08557133247802634, 0.0007062755348049513, 8.005062088126031e-05, 819354000000, 
-0.0528929576792255, -0.007980538235281496, 9.504356407298186e-05, 819359000000, 
-0.045154287780381594, 0.00991929572051971, -0.00015100153651517815, 819364000000, 
-0.050174060527930664, 0.01812529684489808, -0.00020441608379609337, 819369000000, 
-0.049610062944584976, -0.02465250809154709, -0.0001665201161753484, 819374000000, 
-0.05874271843203431, 0.015035820605592509, 1.7848196186671444e-05, 819379000000, 
-0.042449408593501214, 0.02363996536753773, 0.00025755515329012736, 819384000000, 
-0.021606400195260562, 0.012676031564617248, -0.0002565834829581276, 819389000000, 
-0.057192573683629955, -0.001825491778505061, 0.00014850665795113129, 819394000000, 
-0.08187143115024717, 0.00893128374385572, -0.00019256412965682002, 819399000000, 
-0.06285557804992513, 0.003560711848417709, 0.00019406478835704553, 819404000000, 
-0.054271341993614185, -0.019942697740686816, 5.907722037825126e-05, 819409000000, 
-0.06522343524961936, 0.005256561473892982, -0.0001857643029332676, 819416000000, 
-0.07385360369394232, -0.012962806610657785, 0.00015213496546990073, 819421000000, 
-0.053442066326959574, 0.006524465627199055, -7.383049193886456e-06, 819428000000, 
-0.06241323950382954, 0.005850181403616639, 0.00015994396293877408, 819433000000, 
-0.04734323052863613, -0.02123606646437314, -0.00022319911338442578, 819438000000, 
-0.05556332827871498, 0.040734903935880265, 0.00018054222939524535, 819445000000, 
-0.02944082954460725, 0.0016855291762220238, -8.849772164467216e-05, 819450000000, 
-0.04051834614910812, 0.030744464213003878, 0.0002743196753313174, 819455000000, 
-0.04065536333392637, 0.007191709571040358, 0.00025412978208007466, 819460000000, 
-0.04772364488468439, -0.005192068987802128, 0.00032259378464795754, 819465000000, 
-0.03544928397116545, 0.0035684251762831366, -0.0002746681189395264, 819473000000, 
-0.07122943809005576, -0.015243118503348587, -2.3956150191317566e-05, 819478000000, 
-0.04256074426901107, 0.007168246894424884, -0.00032999126354280576, 819483000000, 
-0.02829772080841129, 0.005299599243452073, 0.0001702060413846551, 819488000000, 
-0.046053362521673115, 0.06993186200259782, -3.861068023790309e-05, 819493000000, 
-0.05389255756548154, -0.01104974229953356, -0.00011799592902122522, 819498000000, 
-0.03306226145711051, 0.013188930229728304, -0.00023854865897305084, 819503000000, 
-0.008913000230504911, -0.013021374674965818, 6.934663189718148e-05, 819508000000, 
-0.039726433763175584, 0.013350813059816193, 0.00020036406043588136, 819513000000, 
-0.06968869365961775, -0.0008750098010461053, 0.0003397655543215672, 819518000000, 
-0.06136200134772255, 0.023879959172761884, 0.00012635739343499203, 819523000000, 
-0.07426774321582838, -0.01721510936381531, -0.00018206407865982161, 819528000000, 
-0.038592269999406695, 0.01810374105739628, -5.959938526456582e-05, 819533000000, 
-0.09574028976818647, -0.018018086619009242, 0.0003418023886752712, 819538000000, 
-0.07609208203301943, 0.0016330119279417245, -0.00020409206161557423, 819543000000, 
-0.056759410228356226, 0.008944015246900444, 0.00018462379133807254, 819548000000, 
-0.04715890929953004, -0.02247580895015038, -0.0001456369604962436, 819553000000, 
-0.06499648543397511, 0.018562842117383595, -5.3204804649904596e-05, 819558000000, 
-0.05739437208474289, -0.0023247004272016723, -0.00012771420353676282, 819563000000, 
-0.06938559768606539, -0.019121909364762622, 0.00018234130109944557, 819568000000, 
-0.05328474302430954, 0.028442104853771664, -2.7479307418207697e-05, 819573000000, 
-0.051204467364625125, 0.009929953287905077, -0.0002841356430084529, 819578000000, 
-0.036840330144158315, 0.012138091878046315, -0.00013171576826893688, 819583000000, 
-0.07809828848961983, 0.01356173578434649, -7.094174599630837e-05, 819588000000, 
-0.04302457121757341, 0.010257019794630522, 0.00014229682356808326, 819593000000, 
-0.07053338227182944, 0.008520004270443896, -0.00012287839444296138, 819598000000, 
-0.06919896975844174, 0.015488758664339578, -8.34679118440359e-05, 819603000000, 
-0.054132931716114066, -0.026066764373707314, -4.83245917910259e-06, 819609000000, 
-0.06102300072812778, -0.011378042818560339, -8.016467982883498e-05, 819614000000, 
-0.05429368998229835, -0.009389443078690949, 0.0002100865796681791, 819619000000, 
-0.0721808923889932, 0.016522369402559852, -0.0001923523897326951, 819624000000, 
-0.06287492170355118, 0.029053986212122875, -0.00023776411618304692, 819629000000, 
-0.03110600907129342, -0.006409647458639058, 9.246648660443332e-05, 819634000000, 
-0.042645551651811234, -0.0042952230198088845, -0.00014257051844923226, 819639000000, 
-0.06506311918174014, 0.022175162019501288, -0.00028400316132143685, 819644000000, 
-0.06280971296067918, -0.019736773465284938, 4.766452740223439e-05, 819649000000, 
-0.052625547214121146, -0.032635672808988006, -0.00013998964034526092, 819654000000, 
-0.04827838323250873, -0.005490788688805116, 0.00019020592581295203, 819659000000, 
-0.008720323128147092, -0.017737568149770063, -0.00030254342402988597, 819664000000, 
-0.04681990569501906, 0.011538663743044025, 0.00011140631719699885, 819669000000, 
-0.0568664480327458, 0.00783976834699914, 0.00012245240056512957, 819674000000, 
-0.04598620674045968, -0.0005734211401506803, 0.0002304019474097138, 819679000000, 
-0.0473491363994427, -0.018000433849703568, 0.00027231255537770024, 819684000000, 
-0.049452301017405616, -0.014753079198899908, -9.630798409007886e-06, 819689000000, 
-0.04378095319651017, 0.007941179856101944, 8.552024740315758e-05, 819694000000, 
-0.07446178857274248, -0.016711113848605037, 0.0002226502276830851, 819699000000, 
-0.045455518014520496, 0.0180563250403523, 0.0001350847669209227, 819705000000, 
-0.05419775293665277, -0.0014413625722786974, -6.238420570828866e-05, 819710000000, 
-0.029487144198533412, -0.010210030573685608, 0.00026255001045399256, 819715000000, 
-0.05430254594290418, -0.025066571352500042, -9.586010095410882e-05, 819720000000, 
-0.08220539082767238, 0.00111055883921009, 0.00018301133743630523, 819725000000, 
-0.0428758948778245, -0.01734697881558592, 0.0001803290192925604, 819732000000, 
-0.048671273151425984, -0.015628711216736608, 1.1736933302420093e-05, 819737000000, 
-0.08811370189557241, 0.012783225044042595, 0.0001819835111646384, 819742000000, 
-0.003979331308206192, -0.015082299456693784, 0.000341263568665119, 819747000000, 
-0.0612311463402382, 0.010717586558217963, 0.00048208011280605233, 819752000000, 
-0.05280496045778514, -0.003209578999714361, -0.0001893711546091932, 819757000000, 
-0.060210862614507255, -0.020699596787803053, -0.00011946821938204778, 819762000000, 
-0.05262527935598505, -0.01925337957907372, -3.259797399627018e-05, 819767000000, 
-0.06336226552019954, -0.010702783032359702, -0.0002861931456477435, 819772000000, 
-0.05755261175874392, -0.00019154083947600566, -0.0002505284964606412, 819777000000, 
-0.04880743652206864, 0.027552928902107938, 0.00030338384394135, 819782000000, 
-0.07612583290152328, -0.0020963142151047584, 2.085733596171264e-05, 819789000000, 
-0.05937793201797099, 0.01821637071091626, -0.00013503873795637274, 819795000000, 
-0.08673292763674148, -0.00398557624355907, -0.0004758499042210318, 819802000000, 
-0.060724977217605544, 0.014821367074003599, 6.264038882484019e-05, 819807000000, 
-0.07055102543615528, 0.04294330705089591, 7.648404650381383e-05, 819812000000, 
-0.0712099300999552, -0.0183732593735689, -7.702678253267682e-05, 819817000000, 
-0.04480342942946227, -0.0037821940211083933, 0.00041179737979480237, 819823000000, 
-0.023839239906269266, -0.014956974280734949, 0.00013729186782708423, 819828000000, 
-0.05831989849996245, -0.0009041207956863172, 9.317439316282764e-05, 819833000000, 
-0.06434999541269067, 0.005520627660965602, -0.00023107936991155587, 819838000000, 
-0.07296594543398481, -0.0014992361735936821, -0.00021162269567472184, 819843000000, 
-0.05878707363416222, -0.007130826691987787, 6.920702273768114e-05, 819848000000, 
-0.07684129589881203, 0.01141445842457037, -0.0001346559809584712, 819853000000, 
-0.029801920870970583, -0.013737065833512821, -7.18480822867459e-05, 819858000000, 
-0.06894476775416578, 0.0058970079504082305, 8.377510770658e-05, 819863000000, 
-0.02620884307790871, 0.00018684280431422297, 0.00020184903283343997, 819868000000, 
-0.08908363435326998, 0.003453628617622595, -3.1037239812543787e-05, 819873000000, 
-0.06168984473492491, 0.010658877297416339, 3.750713949195424e-05, 819878000000, 
-0.0513085083297038, -0.009924638166355953, 2.5746553295129603e-05, 819883000000, 
-0.06666036567237078, -0.002511473573579526, -0.0002352038983129613, 819888000000, 
-0.06009362734862712, 0.006142105743341164, -8.732489505401656e-05, 819894000000, 
-0.05536112121165459, 0.0033408149172067035, 9.579117436260774e-05, 819903000000, 
-0.06628517575036208, 0.007965918752131021, -6.583293290355972e-05, 819908000000, 
-0.04947285123999637, -0.023915858487636492, -2.2002178199071032e-05, 819913000000, 
-0.05681140192657304, 0.025245160834224234, -2.0603701605576394e-05, 819919000000, 
-0.044845169071792194, 0.024328543508437092, 0.00026379069165548773, 819924000000, 
-0.08377275026769722, -0.005611568248745315, 0.0005506289652947146, 819929000000, 
-0.07361522195193504, 0.0010270478185716878, 0.00024816735002536675, 819934000000, 
-0.07334809685866801, -0.021919080568206024, -0.00022591569393497698, 819939000000, 
-0.07146363361715911, 0.052453157542191035, -0.0002750514234965081, 819944000000, 
-0.055389329026254916, -0.014342065185481125, -0.00027065855680862553, 819949000000, 
-0.05424189061617035, -0.014894377590894946, 4.8911255932686515e-05, 819954000000, 
-0.04990313692329544, -0.027709341417873536, 0.00016662376273998117, 819959000000, 
-0.03543834744738386, 0.0004210937663861955, 0.000250251672017108, 819964000000, 
-0.060091580610092954, -0.025179296618062636, -0.00040437711914838385, 819969000000, 
-0.054574486620652285, -0.012460459404293507, 0.0002519874039343654, 819974000000, 
-0.07101274170432093, 0.0035235218997353404, -5.1714517591903534e-05, 819979000000, 
-0.04629565829936945, 0.013769790448869175, -5.168591587072412e-05, 819984000000, 
-0.08105279053202943, -0.007681925239832016, -0.00039536430994096075, 819989000000, 
-0.047297454464851, -0.0023962980893600587, -0.00046384918619896414, 819994000000, 
-0.08912969247588955, -0.026190176934155294, -0.00026612878403866236, 819999000000, 
-0.010707769597719907, -0.0203391491188849, 0.0003107539704742593, 820004000000, 
-0.05123981952037351, 0.005304948042963123, -0.00016334981355868136, 820009000000, 
-0.05940418330675981, 0.006685187195866415, 0.00011495011551815842, 820014000000, 
-0.03342566227488502, -0.0002661391276655734, 0.0001621589060584738, 820019000000, 
-0.1044829196811875, 0.02178994405787496, -9.974317554500584e-05, 820024000000, 
-0.04462823770862533, 0.015930222837963554, -0.00026779166595246404, 820029000000, 
-0.06920877085711717, -0.00736971373296472, 0.0002533948423063035, 820034000000, 
-0.06608671647111825, 0.014479294000829626, -0.00020578097875078205, 820039000000, 
-0.06778511484609571, 0.01093580264432505, -0.00048688140318845565, 820044000000, 
-0.06075617579889899, -0.0025200553949600826, -0.00015081490552507168, 820049000000, 
-0.06297472280087726, -0.006237545825394479, 0.0003021399062283244, 820054000000, 
-0.049485879619987155, 0.008127751615278261, -7.836328160009128e-05, 820059000000, 
-0.04635901215862837, 0.012224332367556823, 1.2974752261620656e-06, 820064000000, 
-0.03613726556657666, -0.005002105976012147, 0.00035441450071491343, 820069000000, 
-0.040842398402277824, 0.006838699349570511, -0.0003446932046089162, 820074000000, 
-0.04628974142005457, -0.0030645546016457715, 1.881951472208197e-05, 820079000000, 
-0.059753896049721006, 0.009294026416366608, -9.886704176238099e-05, 820084000000, 
-0.05435665559793892, 0.035702618975801056, -0.000279770017955829, 820089000000, 
-0.03666593036400974, -0.0007328934529160138, -0.00012496418025335017, 820094000000, 
-0.08449304644652728, 0.014232309306346218, 0.0004486781588203362, 820099000000, 
-0.052604260344258094, 0.005809890058753977, -0.00030271713686283496, 820104000000, 
-0.07095126253687725, -0.014930444473018119, 0.0005640145216482689, 820109000000, 
-0.04042306459157356, -0.007590056037911211, -9.62378336685348e-05, 820114000000, 
-0.06029135033238541, -0.02410584575061739, -0.0001345418243493051, 820119000000, 
-0.03338476445756497, -0.008152721079329696, -2.1815163250716876e-05, 820124000000, 
-0.066695661682446, 0.023002440578847712, -7.459653408599248e-06, 820129000000, 
-0.049702164754899955, 0.004968180268219108, 0.0001321478344929552, 820134000000, 
-0.04680369914931646, 0.025752204943604164, -0.00011064293888183755, 820139000000, 
-0.027551820692022416, 0.010231061643765894, -8.011131669202423e-05, 820144000000, 
-0.0631575439680293, -0.018773090898684505, 7.464364640917259e-05, 820149000000, 
-0.05082356359231917, 0.015285088712004324, 0.00013226069706723874, 820154000000, 
-0.08678852117881425, 0.024265536362032263, 0.00016985152279708744, 820159000000, 
-0.05749825996594066, 0.02042456355803164, 0.00015797653624304318, 820164000000, 
-0.027725164317376788, -0.010288961574310166, 9.668284120294655e-05, 820169000000, 
-0.06255503050904765, 0.009001160635185796, -2.881416513520004e-05, 820174000000, 
-0.015437067103642878, 0.04297992456959256, 0.00012840052436100227, 820179000000, 
-0.047533383970016926, 0.0022370741733458545, 0.00011354347812580262, 820184000000, 
-0.030234042953367284, -0.003928197023839846, 0.0004010349972916916, 820189000000, 
-0.06944042629840148, -0.008447244860187934, -0.00025647674081786544, 820194000000, 
-0.03738521384469107, 0.025075588102270892, 0.00019857384121045775, 820199000000, 
-0.06448077368668942, 0.013212482676396407, -8.443299270830608e-05, 820204000000, 
-0.041189038080257284, -0.02153046874376974, -0.00022562713273068896, 820209000000, 
-0.052424874788495, 0.025057316876221522, -7.381345726302312e-05, 820214000000, 
-0.022347478243646003, -0.027383089498549548, 0.00022215214019755193, 820219000000, 
-0.07244787401692075, -0.03519797457029499, 9.927491781198909e-05, 820224000000, 
-0.07282895688682817, 0.015700244671862127, -8.377594657078526e-07, 820229000000, 
-0.04678480545486125, -0.005766849245067313, 0.00023387804414980458, 820234000000, 
-0.05053608161577724, -0.0013571609330597706, -0.00020266164706407615, 820239000000, 
-0.07838205325866071, 0.025949251838744167, 0.0001856389876020024, 820244000000, 
-0.05283826237705745, -0.014983506536479622, 0.00018569077605955038, 820249000000, 
-0.03740622229555073, -0.011524136041193107, -0.0001037727761555759, 820254000000, 
-0.056631119780686724, -0.0158347952526962, 0.00010048647472068424, 820259000000, 
-0.06334388799343788, 0.015906342559455985, 3.956318878422402e-05, 820264000000, 
-0.04484932248524126, -0.011172747491947526, -8.761541081544482e-05, 820269000000, 
-0.06198744527885492, -0.029103000805610884, 0.000399467585112408, 820274000000, 
-0.02092134825091993, -0.021302377510032753, 0.0003775616991409623, 820279000000, 
-0.06657880588357884, 0.018602256080756753, -1.7776975666749012e-05, 820284000000, 
-0.06087620895596754, 0.0043341149823259255, 0.0001964719974725225, 820289000000, 
-0.06321415560834559, 0.014849079867156629, 0.00016414274563183176, 820294000000, 
-0.09888374554745355, 0.0340426662727911, 8.46212200560914e-05, 820299000000, 
-0.02487983790948272, -0.004660750646071026, 9.606785688961288e-05, 820306000000, 
-0.05055696375101157, 0.008765691792019269, 0.00029995902852203297, 820311000000, 
-0.07932814495046407, 0.020803193545551893, 8.22511701416593e-05, 820317000000, 
-0.05114199371326306, 0.0026098490795478605, -0.0002009726591646844, 820323000000, 
-0.07877505391550917, -0.013245388381415465, 0.00012985771176713862, 820330000000, 
-0.025986368688895044, -0.014203097631077636, 6.387417751676005e-05, 820335000000, 
-0.07457950556922038, -0.0327651290762795, 0.00015933034616345595, 820340000000, 
-0.02563938314594161, -0.011270180623044246, 4.1876474132372055e-07, 820346000000, 
-0.0744956759603422, 0.020881298938334313, -9.868205078614387e-05, 820351000000, 
-0.05139719866408202, -0.007925836355658092, -0.0002303530714060894, 820358000000, 
-0.07227881698250482, 0.011243171937809479, -3.410052132046702e-05, 820362000000, 
-0.0756325286852184, 0.0011571617991800905, -5.0142229726902725e-05, 820367000000, 
-0.05367966729740043, -0.011683711477852266, 7.354762309981861e-05, 820372000000, 
-0.036847809404245174, 0.01927840459082258, 0.00012384266981266175, 820377000000, 
-0.05994774716742663, 0.023765214793216402, 9.777772699649842e-05, 820382000000, 
-0.05080065106091542, -0.03577775103452055, -0.0001618877890465092, 820388000000, 
-0.04730529248775962, -0.02837015882688245, 0.00017284862257713887, 820395000000, 
-0.08936880108097076, 0.006697636571441094, 5.404998436548306e-05, 820400000000, 
-0.053495185963063394, 0.010669027902029844, 2.9205548012546298e-05, 820405000000, 
-0.04392980327099179, 0.013554596073824, -3.8504396851281095e-05, 820410000000, 
-0.048142773873264634, 0.0016308887027955553, 0.0003673513816359755, 820415000000, 
-0.048280178599894114, 0.001378921123690773, 7.874316254169904e-06, 820421000000, 
-0.044299869350407875, -0.023668817804263175, -4.7208244867214805e-06, 820426000000, 
-0.02979947520150475, -0.008113983995141258, 9.31285320841513e-05, 820431000000, 
-0.05752741701606506, -0.0207713336616406, -0.00011012038749763067, 820437000000, 
-0.03622824498357684, 0.007953177791890384, 2.207940103072069e-05, 820442000000, 
-0.05609510297686794, 0.016881293190548662, -2.607535213688419e-05, 820447000000, 
-0.05193860547190777, -0.0029942757884364587, 0.00011821186289455688, 820452000000, 
-0.027862919063695306, 0.027488610148920886, -2.5626823825833078e-05, 820458000000, 
-0.07870985972030228, 0.007645204510607359, -8.27811158286159e-07, 820463000000, 
-0.04801227619714518, -0.0040971478895798835, -3.4525145212699144e-05, 820468000000, 
-0.08079484450978497, -0.0053885103491862945, 0.0002785661167923223, 820473000000, 
-0.05767045727567815, 0.021435463032264793, -9.214458439175148e-05, 820478000000, 
-0.05982585367232795, 0.0038730284724483957, -0.0003663162094016433, 820483000000, 
-0.06434571825174439, 0.009414482912306123, -0.00037598704840818473, 820488000000, 
-0.08298171793477109, 0.00389774617136351, -5.129045277101079e-05, 820493000000, 
-0.062012143592572615, 0.0226690160233326, 2.4271951138939617e-06, 820498000000, 
-0.06176677869879724, 0.006230800903751752, 0.0002495934003363863, 820503000000, 
-0.055550839267781274, 0.003093644106690654, -0.0003013258264111547, 820508000000, 
-0.00021859241394995427, 0.014562809574640878, 0.0001635402377023496, 820513000000, 
-0.050170191028206176, -0.01684760788882835, 1.3320300051948031e-05, 820518000000, 
-0.05194002471978316, -0.02527537955722292, 2.7421654873327857e-06, 820523000000, 
-0.03944138632490965, -0.02857258798105912, -0.0003448273967379284, 820528000000, 
-0.0729310593469436, -0.011653990952872213, -0.0002664056679799018, 820533000000, 
-0.04634267153308531, -0.01721219822571679, -0.00011796247513367087, 820538000000, 
-0.07331397806569996, -0.013556373162657304, -1.6965406645749165e-06, 820543000000, 
-0.04521474838640126, 0.005614734998797087, -0.00010250751376375013, 820548000000, 
-0.04417548563389346, 0.010861532363054883, -0.00030761995349369646, 820553000000, 
-0.03925443933312233, 0.004435256245860671, 0.0001252750206937366, 820559000000, 
-0.05000551421678481, -0.0005152860274742035, -9.057452394158919e-05, 820564000000, 
-0.06053384739450318, -0.017231637577065424, -9.771948626010898e-05, 820569000000, 
-0.03857418886525331, -0.028092378069808306, -0.00019535658276823215, 820574000000, 
-0.05655489822365654, 0.046942151097185726, -6.829331291861376e-05, 820579000000, 
-0.07583011730800532, 0.015280145009342124, -2.6697974202268066e-05, 820584000000, 
-0.08680445999085112, 0.020238031874004844, -3.592643884251292e-05, 820589000000, 
-0.08337978235692847, -0.0034926329353522473, 6.840475508928146e-05, 820594000000, 
-0.046449897578000054, 0.009315613733847905, 1.5028660152400453e-05, 820599000000, 
-0.09268993294548197, 0.008211195754705065, -8.030785561397122e-05, 820604000000, 
-0.0315095291467001, 0.011003347133748589, -0.00015561807663932314, 820609000000, 
-0.03676577306103612, 0.04196379783548442, -0.00019222104753656232, 820614000000, 
-0.029640321423633445, -0.014172567415492106, 0.00021696562885784444, 820619000000, 
-0.06290317220092478, -0.0031178959144392664, -1.1718574296042098e-05, 820625000000, 
-0.04301218926744177, -0.017848864495394228, 0.000256970670744494, 820630000000, 
-0.05770837039038306, 0.027216067734254355, -0.00013708686898392604, 820635000000, 
-0.09166603716946578, -0.006789749480934242, 0.00013368036864293322, 820640000000, 
-0.0626011090312078, 0.012847180180554515, -0.0002299122320191553, 820645000000, 
-0.06451642496711318, -0.00547170608032611, 0.00024379535094226556, 820650000000, 
-0.0541005046285292, 0.010359029992551245, -0.00018463029937174812, 820655000000, 
-0.04416399945851168, -0.00031492844038665435, -9.449036328332843e-05, 820663000000, 
-0.06631728793782857, -0.01401791560585319, 0.000293101594425204, 820669000000, 
-0.08263306719248162, -0.010699938167366209, 0.0001313917063990597, 820674000000, 
-0.06258148117283394, -0.025424191838258097, -0.0002463570859849581, 820679000000, 
-0.019969547082561795, -0.020937965267216772, -0.00014923933659029243, 820685000000, 
-0.07993990758603652, -0.007903370515062326, 0.00022985202857255083, 820690000000, 
-0.029073027882112915, 0.013921514067358347, 8.867430758037049e-05, 820695000000, 
-0.06406385241095121, 0.042993201666953196, 0.0003664960017091347, 820700000000, 
-0.060112964589635165, 0.04344720657259792, -0.00032152508646090877, 820705000000, 
-0.05709797313614063, 0.008497570334290404, 0.0001242664819282019, 820711000000, 
-0.029692579565411686, -0.0024085435968270005, -0.00022430808084923182, 820717000000, 
-0.033574814557794964, -0.01695321455254038, -0.00017925050764766552, 820722000000, 
-0.03778778065125471, -0.004016633872808426, -0.00013658378680564005, 820727000000, 
-0.04381172343592225, 0.013732350076525174, -0.00014733981918926104, 820732000000, 
-0.07484244739012941, 0.014820236379788935, 0.0001275150096769997, 820737000000, 
-0.038617687281269374, 0.0045947532902336176, 9.903420442020335e-05, 820742000000, 
-0.07950729952751041, 0.0017458067871279764, -0.000390542479636813, 820747000000, 
-0.035517920559090546, -0.001436848318267437, 0.00031381887813719935, 820752000000, 
-0.06791831184274139, -0.01812051625213848, -0.00036769131046334325, 820757000000, 
-0.094129213402207, -0.002481950586394942, -0.00021586244057977184, 820763000000, 
-0.04363174752048336, 0.022320656648139238, 0.00040065486826119234, 820768000000, 
-0.03862624457278381, -0.01854040178630629, -0.0002817456048115664, 820773000000, 
-0.03801742455282748, 0.012686563030439179, -0.00022784792933182798, 820778000000, 
-0.06559598299271634, 0.005279086128333646, -0.0002204060005022127, 820783000000, 
-0.03147861535844294, -0.01704384045843616, -0.00023661471485662483, 820789000000, 
-0.08845245049760192, 0.006876562167984781, 0.0001000829026028752, 820794000000, 
-0.051234403385135525, -0.020576578917044154, -0.00016431847799362997, 820799000000, 
-0.06371773276437716, 0.003913418873012253, -4.600337449528227e-05, 820804000000, 
-0.041235531620274046, 0.016559230916660228, -0.0003929878307771894, 820809000000, 
-0.039248285145785225, -0.011374288715935411, 0.00016733347934899589, 820814000000, 
-0.027106692152274087, 0.014339209791442226, -0.0002495656968658766, 820819000000, 
-0.06635280484623642, 0.006209645999365919, 2.7034324514439364e-05, 820825000000, 
-0.059711188191006355, 0.025180226890021126, 2.5095293438729393e-05, 820830000000, 
-0.06067795723577894, -0.01671226174124511, 0.00016162776687481467, 820835000000, 
-0.07898410709640083, 0.026328905357342076, 7.091116407261872e-05, 820840000000, 
-0.05092939518625249, 0.008763670641168524, -2.196316558870743e-05, 820845000000, 
-0.04595860174438968, -0.005516956716261757, -0.0003045911830451364, 820850000000, 
-0.02141655528815014, -0.01572685618273018, 0.0001677521638552369, 820855000000, 
-0.0674862265273925, -0.0001857008693634518, -0.0003073506310318909, 820860000000, 
-0.0765318879361392, 0.00030562906548426197, -0.0001779312813867186, 820865000000, 
-0.06475807002082744, 0.004499929507550862, -4.549858874754422e-05, 820870000000, 
-0.03220860346066091, 0.025642100010129957, -7.596126631348248e-05, 820875000000, 
-0.05637543614232595, 0.022188163863929293, 0.0002525768075498676, 820880000000, 
-0.030735477508832588, 0.00574745236494011, -0.00020545684030409613, 820885000000, 
-0.02390855027461461, -0.006198123259859833, -8.368244113935282e-05, 820890000000, 
-0.036195490392992864, 0.00939747409647723, 3.415579423783328e-05, 820895000000, 
-0.060510617155785366, 0.02856029306786904, -0.00019056473280976792, 820901000000, 
-0.029082091021524866, -0.01598432999104445, 0.00013164590613953548, 820906000000, 
-0.06834298723280202, 0.012444943606658238, -0.00011064058218887232, 820911000000, 
-0.044263750757456734, 0.014072265736179219, -1.2787981293658017e-05, 820916000000, 
-0.08897414738792714, -0.045577061516164974, -0.00011658699138009845, 820921000000, 
-0.06499636434646361, 0.006903474508893934, 0.000499075406779629, 820927000000, 
-0.036814852472440235, 0.0020297590783822754, -0.00012503202740139018, 820932000000, 
-0.06914600836540198, -0.01101506651775819, 0.00011574047988619567, 820937000000, 
-0.08455111864182409, 0.02657656007951218, 0.0001989125888419692, 820942000000, 
-0.05485874367119369, -0.01101083458696042, -0.00040848966261639074, 820947000000, 
-0.04310460214888823, 0.030761572025598857, -7.078865859531114e-05, 820952000000, 
-0.08284440875196175, -0.010624273260351827, 5.055322281846898e-05, 820958000000, 
-0.06237336261207983, -0.037404948350272624, 0.00010287894945768156, 820963000000, 
-0.09360985129514893, -0.019230221816053848, 6.077187943186261e-05, 820968000000, 
-0.05414058420729632, 0.020251677152748074, -0.00014265406900518425, 820973000000, 
-0.062422270113194754, -0.02452404890583905, -5.639492604699506e-05, 820978000000, 
-0.04669680353590665, -0.003923012117906979, -0.00021594796313239225, 820983000000, 
-0.08690122166053842, -0.05335574334952278, 9.251077261973302e-05, 820988000000, 
-0.04007348436138722, 0.02372505774621648, 0.00017077168406830497, 820993000000, 
-0.07063968560957312, 0.011598202699329806, -0.00015863229020497143, 820998000000, 
-0.061396890706435066, -0.018005065331031835, -0.00026572332931624153, 821003000000, 
-0.06822036640963584, -0.0023661543955255738, 5.3568478416208186e-05, 821008000000, 
-0.005024007894406657, -0.017181305116361137, -0.00020300615136534134, 821013000000, 
-0.05923409446600133, 0.018302175027618068, -6.809133774472234e-05, 821018000000, 
-0.08083016528829545, 0.0030848149004042867, -0.00048087004915829825, 821023000000, 
-0.07266769700079614, -0.012839774864797532, -0.00016037206882024485, 821028000000, 
-0.016441982643005018, -0.006720951940051637, 7.832160006376791e-06, 821033000000, 
-0.0631998892990945, 0.027845447839747177, -0.00018317868935839034, 821038000000, 
-0.06632314235871346, 0.016489210570350497, -3.1789403873264906e-05, 821043000000, 
-0.036905045048848534, 0.006477662156095047, 0.0002859030734761498, 821048000000, 
-0.03972547548758572, 0.01671763333293601, 3.3202268332430627e-06, 821053000000, 
-0.044940232466710334, -0.013476136795758683, -5.53281204082938e-05, 821058000000, 
-0.04828148966308753, 0.014202131283867226, 0.00014217714566865238, 821063000000, 
-0.05559572958941946, 0.014627712994048888, 0.00013402909237690745, 821069000000, 
-0.05379674102159677, 0.023421636905585987, 0.00018088531464194324, 821074000000, 
-0.06416793437984283, 0.016273676627846696, -0.0004885989907805884, 821079000000, 
-0.04346832559843176, 0.0024635630823156922, -0.00017516388259370392, 821084000000, 
-0.06421714551438143, 0.02388184980765507, -0.0003492058509706826, 821089000000, 
-0.06322551936498869, 0.0430758092043527, -3.626860457739226e-05, 821094000000, 
-0.05081288789973999, -0.0029605470126411824, -0.00015211257055239302, 821099000000, 
-0.04036209319419717, 0.027948584161509804, -7.473173176666884e-05, 821104000000, 
-0.04366348888960967, -0.0008601567660788049, 2.442697495285745e-05, 821109000000, 
-0.05354776739999563, 0.0010329667536680466, 0.00022616440307581738, 821114000000, 
-0.07626029346197093, 0.008467741315517373, 0.00021396254243083934, 821119000000, 
-0.023539670805390482, 0.0004057180080357201, 0.000423772045725438, 821124000000, 
-0.05938523182651688, -0.04539234603190271, 2.638890091168971e-05, 821129000000, 
-0.05149080401724428, 0.007713948322786884, -0.00021117086214812785, 821134000000, 
-0.053532671016889015, -0.0032614401549166862, -3.687424527535316e-05, 821139000000, 
-0.033102550767996744, 0.03902535286419394, 3.19294411339309e-05, 821144000000, 
-0.0441592724292508, -0.0279963346980833, -8.911074426089103e-05, 821149000000, 
