acc_x, acc_y, angular_z, stamp, 
-0.05831447139383434, -0.050814503565619625, -9.869517934279094e-07, 143798000000, 
-0.06527056343225364, 0.008773987988129114, -1.497297056020727e-05, 143803000000, 
-0.03097513662889169, 0.012017824573599125, -0.0001146697807124473, 143809000000, 
-0.05202904289231506, 0.004604155672461349, -6.995675456178425e-05, 143814000000, 
-0.045722467209851986, -0.015692637320134102, -0.0003071958178729667, 143820000000, 
-0.05193497781002196, 0.009786023265153277, -9.79573752282865e-05, 143825000000, 
-0.030730819431778987, 0.016285638005274362, 0.0002700169174655549, 143830000000, 
-0.05401191733378663, 0.007326068568998889, -0.00024816370125659004, 143835000000, 
-0.07854296256014934, 0.0019843980783330467, -0.0001801225035747602, 143840000000, 
-0.04610082568475832, -0.01447911535404111, 6.849624032338113e-05, 143845000000, 
-0.035240666807639126, -0.004530154757136115, 9.715878795428789e-06, 143850000000, 
-0.047202371325629135, -0.0006805343356279279, -0.00012721957700441192, 143855000000, 
0.0018722800163120945, 0.021326420304315093, -0.00010833652318537003, 143860000000, 
-0.04437598533779645, -0.00028979131170755556, -7.860849605806754e-05, 143865000000, 
-0.037703608156629966, -0.009619616080768053, -0.0001221050114638478, 143870000000, 
-0.07652996623839695, 0.033143564784663716, -0.00010955586367496406, 143875000000, 
-0.05771791637211599, 0.0380540142460484, 9.878438890908223e-05, 143880000000, 
-0.04015439723846227, -0.005131624185005812, -0.00027721651412145526, 143885000000, 
4.529535307896137, -0.01540817626557817, 0.00011572314060060023, 143891000000, 
1.0119144761082581, 0.024090483391419056, 3.686841940320165e-05, 143896000000, 
-0.11925560351634874, -0.0236840714872188, 0.0001386482609475883, 143901000000, 
-0.09333233472657643, -0.019291201638380183, 4.767388708464877e-05, 143906000000, 
-0.04992663946180688, -0.01740495165485136, -9.20390240984862e-05, 143911000000, 
-0.08731355094049839, -0.015157807771118168, 0.0005977843373528645, 143916000000, 
-0.04410771337055238, 0.012693056090868939, 0.00035665440254443873, 143921000000, 
6.9443985874907606, 0.018884547073812923, -0.00031833055480083724, 143926000000, 
-0.19269115103420686, -0.014677249522307628, 0.00017373583006023222, 143931000000, 
-0.1049884280028719, -0.0072753141719944, 0.00024371416571374353, 143936000000, 
-0.08852350790844665, 0.02273011431658195, 0.0002265820533445891, 143941000000, 
-0.07557756423777427, 0.0026399976621824606, 1.7657672411649544e-05, 143946000000, 
-0.043534743625129144, 0.008000897621129694, 9.258199253596264e-05, 143951000000, 
-0.07806279207790255, -0.005857986334682305, -0.0001204217995799893, 143956000000, 
6.908394329642755, -0.0018144526058115095, 0.00011557589922846016, 143961000000, 
-0.17355353064352846, 0.006801864360063682, -7.810850398915264e-05, 143966000000, 
-0.11184592846079505, 0.026481442674099697, 0.0002593294490947714, 143971000000, 
-0.05503233175321984, 0.034346654301396155, 0.00022120154411228604, 143976000000, 
-0.054315172983775965, 0.0004812911900860294, 7.368896961328e-05, 143981000000, 
-0.08713752542654493, -0.005613702457690765, -8.427426404552575e-05, 143986000000, 
-0.05758443605424595, 0.013831843037538205, -0.0001629053904481104, 143991000000, 
6.8943043028575834, 0.01927606211144329, -1.962287107111742e-06, 143996000000, 
-0.15764761086250031, -0.01875390159854648, 0.000175333933079874, 144001000000, 
-0.06978799514554146, -0.0036478961987332047, 0.00018044363994743206, 144006000000, 
-0.05382362421223029, 0.022214682702323893, -0.0001234636719082261, 144011000000, 
-0.06021694929413718, -0.012864450636502827, 0.00042115668980604573, 144016000000, 
-0.07759014169102278, -0.01598563856258476, 0.00046591475416242207, 144021000000, 
-0.0588229979450123, 0.02510443145323723, -9.460251633445559e-05, 144026000000, 
4.896784243250222, 0.008999852154912094, -9.048731109943533e-06, 144032000000, 
-0.12340780781694381, 0.0024957006137969148, 0.00043234113841865863, 144037000000, 
-0.05657858510371726, -0.0016745064468152442, 0.00012588044401488232, 144043000000, 
-0.05046810088525768, 0.00802675259424188, 2.1968245539810693e-05, 144048000000, 
-0.07350983641663367, 0.00017492567513853713, -6.2333438066605e-05, 144053000000, 
-0.06119031675207333, 0.0089095678082645, 0.0003241888264225748, 144058000000, 
5.790042925368605, -0.012467245704343629, 6.449226102676543e-05, 144063000000, 
-0.14990288248588352, -0.01699097605134011, 8.161741586969454e-05, 144068000000, 
-0.10405983604983615, -0.030023810414794433, 0.0001470861284165795, 144073000000, 
-0.05639208920918244, -0.002101421942781403, 7.298508147555068e-05, 144078000000, 
-0.0340364417408936, 0.01847633825192949, -0.00014183339166143745, 144083000000, 
-0.048330229566806486, -0.0016033331894539436, -5.849792724376412e-05, 144088000000, 
-0.03641085342558948, 0.008254965110732341, 4.996201123371225e-05, 144093000000, 
8.665819331536301, 0.013472344568367971, 4.927288349296635e-05, 144098000000, 
-0.12848169525482855, 0.014968352245071955, -0.00029484262480249655, 144103000000, 
-0.08910802181786477, 0.017822224888489287, -8.318031608276203e-05, 144108000000, 
-0.03279481876797502, -0.008884275276601145, 8.709901809844206e-05, 144113000000, 
-0.03495485500132502, 0.006656702525028121, -0.000241716216692492, 144118000000, 
-0.025731017739364564, -0.0002649095105040532, 0.0001991971253853171, 144123000000, 
4.678254152619364, 0.0071108931861968445, -7.3527622771163e-05, 144129000000, 
1.2115759426588801, -0.00450358322819127, 0.00031765498038469243, 144134000000, 
-0.13471616493908667, 0.00038698036158212696, -0.0002684559129330255, 144139000000, 
-0.06471924824194325, -0.007447397428909267, -6.821927699740218e-05, 144144000000, 
-0.012065645935408612, -0.00469908018871388, 3.858584400836012e-05, 144149000000, 
-0.053052054266778934, 0.022235958212197298, -8.573916216658368e-05, 144154000000, 
-0.03941178348303103, -0.016641896753278245, -0.00014661194044308064, 144159000000, 
4.952815669466769, -0.008770630275961361, -0.00022126852099674837, 144164000000, 
-0.12349065923318563, -0.009097256645922834, -0.00012053191778932658, 144169000000, 
-0.09808432571027521, -0.01910646966505353, 0.0002250314788991341, 144174000000, 
-0.028397160798578628, 0.01151096919809206, 0.0002684350492212978, 144179000000, 
-0.01135353448915219, 0.0031893715005382748, 0.00020581676606824359, 144184000000, 
-0.006844540366147185, -0.006266422526794233, 0.00013932782394055252, 144189000000, 
-0.04910086967127846, -0.02907063125673605, 0.00019115201567509202, 144194000000, 
6.93019351878923, -0.014634597846988652, -0.00023591976787528133, 144199000000, 
-0.13916734963512237, 0.01640695845940872, 0.00011596755420303823, 144204000000, 
-0.08387228519852499, -0.004775831512037117, 0.00039387300134611825, 144209000000, 
-0.03132196023957137, 0.0011929792570472564, -6.62432312194088e-05, 144214000000, 
-0.03098232890110135, 0.018993149622989147, -8.882429599870938e-05, 144219000000, 
-0.03082455037023424, 0.011326080682212152, -0.0003697476332399604, 144224000000, 
-0.03564031918664281, -0.02604879138537659, -5.121492444982687e-05, 144229000000, 
5.786670105184262, -0.03972254926502893, -0.0001934588722349728, 144234000000, 
-0.1566123122693898, -0.029147468110220853, 3.449296360802624e-05, 144239000000, 
-0.04965099044945827, -0.002390191580529069, 0.00020689086507439484, 144244000000, 
-0.007416027173358781, 0.007162029505380856, -9.002080333789132e-05, 144249000000, 
-0.0030429324776013733, -0.004217731696226069, 9.557523514944715e-05, 144254000000, 
-0.025425219037384643, 0.0005861505704272733, 7.568255272026013e-05, 144259000000, 
-0.0313968242617466, -0.00791486102434526, -2.4347701485897415e-05, 144264000000, 
4.33271021059814, 0.020250245579309326, 0.0002604323820805544, 144269000000, 
-0.09880962711013226, -0.012408907549136934, 0.00025451931275919325, 144274000000, 
-0.030681047053310546, 0.04582556938787873, -4.6066801594393994e-05, 144279000000, 
-0.03551980507393289, -0.006118150356897845, -1.1845713488278993e-05, 144284000000, 
-0.021031112823431418, 0.01108714903552457, 0.00014075162881922336, 144289000000, 
-0.006937817590246058, -0.0032306276579186434, -0.00014277297080776084, 144294000000, 
7.067214316587478, 0.03778733942750326, -6.80110553164511e-05, 144299000000, 
1.0119637086415751, -0.007323131404839783, 1.8235977882170852e-05, 144304000000, 
-0.07761804317626579, 0.010701487286496008, 0.00017298170075549503, 144309000000, 
-0.030812658247768764, 0.04887741139352123, -9.589928201612716e-05, 144314000000, 
-0.013672555041331736, -0.021091917846445467, -0.00028469357273801476, 144319000000, 
-0.013802524270375226, -0.005601046180842636, 0.00037892463223571473, 144324000000, 
-0.015431066040219358, 0.004677073434319403, -0.00022262060216763648, 144329000000, 
6.98559387627359, 0.021152131250289134, -0.00016571250012614388, 144334000000, 
-0.10584615484225586, 0.00013612206959243243, 0.0001979142968441467, 144339000000, 
-0.07028811085608949, 0.013423224982623229, 0.0004251663777865894, 144344000000, 
-0.03679568618271212, 0.004846586690348347, -7.098598568920239e-05, 144349000000, 
0.006573027796794074, 0.003385944265549665, -0.00012395797621381503, 144354000000, 
-0.02703010761556644, 0.0058203588866871225, 0.00041819425249890816, 144359000000, 
0.004050955604754084, 0.014208594275488002, -0.0003405119053559115, 144365000000, 
8.721281539177026, -0.017968313096836004, -0.0002157033736520978, 144370000000, 
-0.1290222239347633, -0.0033426230894129266, -8.154812255737636e-06, 144375000000, 
-0.024440461702505054, -0.012987893382083797, -0.00018413771325258375, 144380000000, 
-0.026426129033621605, -0.0362309853664381, 0.0002421587595636039, 144385000000, 
0.019608921978775663, -0.01802660621155033, 0.00015022541968316453, 144390000000, 
0.05682371672232943, -0.007847206217489307, 0.0002946367334920849, 144395000000, 
0.00889874604854712, 0.009962173473670566, 2.115810069051747e-05, 144400000000, 
5.791304306599315, -0.019356247357805677, 9.167216317730992e-05, 144405000000, 
-0.06455616192507996, -0.02814342647171317, -0.00010869986032115002, 144410000000, 
0.00680273407921996, 0.011862412598155571, -0.00015453004509943357, 144415000000, 
-0.001419740175072291, 0.02838040889341186, -8.190320475231214e-05, 144420000000, 
0.022703729610573386, 0.0228092643390575, -4.084398930192871e-05, 144425000000, 
0.017736653188986352, 0.050196303652993615, 0.00030465608811701536, 144430000000, 
6.800231809422392, 0.01897870735719615, 2.5793046019612703e-05, 144435000000, 
0.1236434727709599, -0.013156585520060401, 4.478235388147418e-05, 144440000000, 
-0.07940397812197095, -0.009492777507993459, 7.180294639682552e-05, 144445000000, 
-0.006193516304989112, 0.00026462715755026247, 3.692841044793519e-05, 144450000000, 
-0.012012362054287032, 0.00012527537753900938, 5.326487534639151e-05, 144455000000, 
0.012433985571966719, 0.03959046476014507, -0.00024407794761514208, 144460000000, 
0.05632584055666333, -0.02053916982295942, -0.0001251666663993304, 144465000000, 
7.023781374290446, 0.04384926526733037, 8.333911150645875e-05, 144470000000, 
-0.07632013793123008, 0.01601989945206317, 4.4218659296805846e-05, 144475000000, 
-0.016910512582459267, -0.013703816472658972, -0.0002502359413715438, 144480000000, 
0.049928363786194405, 0.014703434593953438, -7.649571136453664e-05, 144485000000, 
0.023639472895842686, -0.016112144887622106, -0.000166264434187453, 144490000000, 
0.06823038642115167, 0.010068609267657404, -0.00021811039100905853, 144495000000, 
0.037272965575222756, 0.005263715566282193, -0.00019477187945317827, 144501000000, 
7.0346936790708, 0.024387488782402662, -0.00026591407172064496, 144506000000, 
-0.09286139766074361, 0.017842776549040238, 5.8443457607064664e-05, 144511000000, 
-0.013925806025665136, -0.008377410653651867, 0.00046161164796326145, 144516000000, 
0.06267345954347525, -0.008051775408943106, -0.0002278321808178638, 144521000000, 
0.0620683206399362, -0.014496003087750597, -4.918306808580062e-05, 144526000000, 
0.02508411271953673, 0.04820590032581104, -0.00019990977195021842, 144531000000, 
5.700611889130564, 0.007714744912265484, 0.00021035651889768212, 144536000000, 
1.301445940905017, 0.0014794099702295396, 0.00019247109343789825, 144541000000, 
-0.06742225508752632, 0.005882986260865457, 0.00013871108481657666, 144546000000, 
0.028858268248462986, -0.01988106946919925, -0.00018627880280074893, 144551000000, 
0.0539594760315872, 0.0031698465867911045, -0.000210237097493095, 144556000000, 
0.06397880604482349, -0.01567954745073868, 0.00018864395558858472, 144561000000, 
0.06222809470768553, 0.04096291153937772, 0.0003134104280357161, 144566000000, 
6.840728588730322, -0.0018857437459686185, 4.4636977925719045e-05, 144571000000, 
0.15840705603584565, -0.020692310159815094, -0.00014122204373300787, 144576000000, 
-0.006644580431219644, 0.0023917556849573866, 4.778132138237717e-05, 144581000000, 
0.0442308251639235, -3.517065732476889e-05, 6.0757066675981584e-05, 144586000000, 
0.056338530960825264, 0.018998654717109043, 0.0002996940956831846, 144591000000, 
0.10638443746099062, 0.012508788054325929, -9.430535589497038e-05, 144596000000, 
0.06200032974604343, 0.0026008065617391454, 0.00025472975892127633, 144601000000, 
7.08011692566791, 0.019000332212733652, -1.7439961968797588e-06, 144606000000, 
-0.03060794915913749, -0.023163427760522038, -2.8964334880971866e-05, 144611000000, 
0.05011286781119046, 0.03223858146241632, 0.0001113582707887604, 144617000000, 
0.06690826090386572, 0.004783625576141289, -3.456489883122691e-05, 144622000000, 
0.08453920057347995, -0.0038253986285946796, -8.311605950687829e-06, 144627000000, 
0.08089462686702796, 0.025278815056187315, 2.594756636390862e-05, 144632000000, 
0.10636190752669078, 0.009804043777353045, 5.343438722966951e-05, 144637000000, 
8.79328562091072, -0.01392163894754216, -0.0002137652873332131, 144642000000, 
0.028338195144012774, 0.016231770901436682, -0.00018864940232603267, 144647000000, 
0.08909252998624742, 0.007895363373665603, 0.00022649409097722805, 144652000000, 
0.11484566196001547, 0.0012288612606656591, -0.00025131938259319086, 144657000000, 
0.08145432835608717, -0.01373841337489171, 0.00016476169112144821, 144662000000, 
0.1113859629851442, -0.02388653278391064, -5.446727545954411e-06, 144667000000, 
5.751315057565609, 0.012238726962312685, 0.0002178114803657589, 144672000000, 
0.2803209005006796, 0.01123177318543315, -2.5978164816274805e-05, 144677000000, 
-0.003965575825653642, 0.010455482671904163, -3.896113451414846e-07, 144682000000, 
0.09502903454396797, -0.0077203017024610595, 2.195967213512024e-05, 144687000000, 
0.09198063021372704, -0.002350983437371672, 0.00014780909930359757, 144692000000, 
0.09129732086009046, -0.01134265194564873, 3.307984863588414e-05, 144697000000, 
0.1388731382327181, 0.010009830458716769, -6.189015261724758e-05, 144702000000, 
6.897241327929727, 0.007288012981546976, 3.8612872972500164e-05, 144707000000, 
0.24393151447602165, -0.027165477956453726, -3.7987437969691256e-05, 144712000000, 
0.06077813442972672, 0.0012290112336575492, 0.0002292505981954951, 144717000000, 
0.09035884502465744, -0.007231297552858315, 5.76763057836899e-05, 144722000000, 
0.11735961890851204, 0.015506410543442902, -3.2977012636307487e-05, 144727000000, 
0.13681055870243752, -0.010102612960056039, -8.848327694312018e-05, 144732000000, 
0.14086511705008764, -0.021875971339283304, -2.1097935883023363e-05, 144737000000, 
5.958245116057336, -0.0015805589054997229, 0.00010600330678925297, 144742000000, 
0.04408372030040393, -0.007620645221469215, 3.0448236598074446e-05, 144747000000, 
0.0642508901081131, -0.016248809814660536, -0.00020376386157076266, 144752000000, 
0.10447643969493393, -0.013339368619759963, -0.00018692652204938673, 144757000000, 
0.13751519282401214, 0.034823869586157755, 0.00025177840083238245, 144762000000, 
0.16842205919069192, 0.015336994442239755, -1.9982860047820897e-05, 144767000000, 
0.12279893268509175, -0.022707584432554096, -0.00019400471317802427, 144772000000, 
7.113610674396165, 0.022853212939646105, -0.00016532046333558683, 144777000000, 
-0.02022524546501362, -0.012753402028552564, 7.786529738868041e-05, 144782000000, 
0.10251127748152683, -0.021145397488501194, 2.759026773705747e-05, 144787000000, 
0.1401096451552101, 0.03395265571720693, -0.00021914581456544666, 144792000000, 
0.1585336987975265, -0.02164876772004017, -5.7405880804593246e-05, 144797000000, 
0.1656054042660271, 0.025389896512279412, 0.00014167828060755518, 144802000000, 
0.19656911857464318, 0.019292769053969955, -1.5034120594794215e-05, 144807000000, 
3.8196501671082705, 0.015055970511945585, 0.017766982620394226, 144812000000, 
0.07097849838941439, 0.03032674540769631, 0.04621022996858787, 144817000000, 
0.10169510998079113, 0.11438776565839733, 0.06672574004534018, 144822000000, 
0.12280910517382822, 0.0973047788283805, 0.12170114721911483, 144827000000, 
0.1556354578697761, 0.01176435463545137, 0.16401988074414706, 144832000000, 
0.1504245501964393, 0.016213665679441904, 0.18028995518698138, 144837000000, 
1.8495493229447821, 0.09106894839067967, 0.24458562357359123, 144842000000, 
0.7464229630408401, 0.1573577588976229, 0.29805382884278825, 144847000000, 
0.09310212739661124, 0.19036347725108993, 0.35514957143992903, 144852000000, 
0.153031870679451, 0.19361382626333437, 0.41133009197562004, 144857000000, 
0.18186313484683167, 0.2540314882904463, 0.463350503813043, 144863000000, 
0.16493290827470103, 0.2895108233644494, 0.5082374145712273, 144868000000, 
0.1727555994488786, 0.326994656064818, 0.5489189480461241, 144873000000, 
3.673252218128405, 0.3919959360094121, 0.580908476389753, 144878000000, 
0.08764033933407565, 0.43075442580629564, 0.6164747300461623, 144883000000, 
0.1462311288334421, 0.4983478121281557, 0.6507272622605795, 144889000000, 
0.15963448024122764, 0.5237836095393643, 0.6802429771536473, 144894000000, 
0.17654460198645044, 0.5580494912778108, 0.7078877630542488, 144899000000, 
0.1930966784304854, 0.6204634946782643, 0.7259534053037325, 144905000000, 
3.0375883616499104, 0.6753177261748209, 0.7360870035649109, 144910000000, 
0.8687365223502728, 0.714708042331741, 0.7563063490460014, 144915000000, 
0.14347307352728658, 0.784607819668712, 0.7812894928634647, 144920000000, 
0.20790766540511285, 0.7980920461336513, 0.8076259464099924, 144925000000, 
0.203485031377545, 0.8908632139309574, 0.8338239603266835, 144930000000, 
0.17432616763530656, 0.9065331122896007, 0.8587302344181241, 144935000000, 
0.21848351269075914, 0.9772095636938258, 0.8796714253722635, 144940000000, 
2.83388061070188, 1.023991957145085, 0.9016247678815998, 144945000000, 
0.2090804023544692, 1.091843663584085, 0.9315322019466956, 144950000000, 
0.19046097913899437, 1.1421919393118802, 0.964161401973315, 144955000000, 
0.2032275508394816, 1.2105485813348142, 0.9967380662489677, 144960000000, 
0.20665679284539232, 1.2308373455528299, 1.0154429201929855, 144965000000, 
0.22199620420646105, 1.3421108377940736, 1.053516006683829, 144970000000, 
0.20393180258689514, 1.0391561766640784, 1.0751700226642058, 144975000000, 
0.23339977014190236, 1.464090970874917, 1.088286530099572, 144980000000, 
0.23474185194371835, 1.4742924512452522, 1.1001096125075684, 144985000000, 
0.2902356736171153, 1.46800465441928, 1.1014841354553673, 144990000000, 
0.27498806575109613, 1.4882547962138175, 1.097959017062115, 144995000000, 
0.2783609051430854, 1.5339683474788544, 1.0898730263408896, 145000000000, 
0.28008385007671954, 1.5467939433270776, 1.073027778650254, 145005000000, 
0.27333500645058445, 1.3424948654204605, 1.0507418269539457, 145010000000, 
0.24533666744156327, 1.1087139916209339, 1.0303628781315128, 145015000000, 
0.21289991995836596, 1.1182448731583639, 1.0088282024422601, 145020000000, 
0.2370568805547186, 1.0876069970287878, 0.9887433557941747, 145025000000, 
0.24399557208486453, 0.9501035529685348, 0.9702941670887302, 145030000000, 
0.2564701771890666, 0.9898190314704157, 0.9555856430019674, 145035000000, 
0.24727329091983052, 0.9584670248436221, 0.9447210528313913, 145040000000, 
0.24522918008511713, 1.0001242162021617, 0.9376716346482135, 145046000000, 
0.25130449354432055, 0.9325723229542683, 0.9354665236942472, 145051000000, 
0.23350187748653803, 0.9596004999993839, 0.9379895645387554, 145056000000, 
0.2552470430672674, 0.9480135482205434, 0.9441830613686836, 145061000000, 
0.27933046654821814, 1.0362980432354894, 0.9506560233942396, 145066000000, 
0.25642782675417236, 0.9855904671507474, 0.9617443931620576, 145071000000, 
0.27068005860720556, 1.0230525558867125, 0.9761997894420483, 145076000000, 
0.25045540407872346, 0.9871246200485853, 0.9891052786197919, 145081000000, 
0.21367035589123337, 1.0291127197944137, 1.0010465703740032, 145086000000, 
0.23932490936962195, 1.0167168651303211, 1.011994149489727, 145091000000, 
0.2495761351139068, 1.052954549428967, 1.0244947006140315, 145099000000, 
0.268077537567123, 1.0575117144588906, 1.0330238382951389, 145107000000, 
0.2594967681314374, 1.0805437769153816, 1.0340802805610776, 145112000000, 
0.251572494253038, 1.1101668410588683, 1.033243958952106, 145117000000, 
0.24785958130750163, 1.072969683564811, 1.03042682267002, 145122000000, 
0.24843763218167284, 1.009098864487009, 1.0252413368638782, 145127000000, 
0.20191355012878556, 1.075210039670947, 1.0188246596685233, 145132000000, 
0.6654395853187356, 1.2543754985092888, 1.0159792969423624, 145137000000, 
0.43394044781375696, 1.2954697168286908, 1.013434813581974, 145142000000, 
0.23075352561667564, 1.1139042020325516, 1.013363753196585, 145147000000, 
0.19573603368557843, 1.0458566938914007, 1.0158301460717245, 145152000000, 
0.18630895309995682, 1.043816361665684, 1.0189432412535244, 145157000000, 
0.19004987136276744, 1.0712984320448942, 1.0230938382445813, 145162000000, 
0.18836330821861663, 1.0758941340854444, 1.0273818112010278, 145167000000, 
0.10205747063800082, 0.6032741273495323, 1.0348158019644254, 145172000000, 
0.3227125667888465, 0.6255048088185113, 1.0420716807476884, 145177000000, 
0.32839290676570326, 1.0197739322671076, 1.0449967140757908, 145182000000, 
0.26558849607816626, 1.1432182393649173, 1.057162721246627, 145187000000, 
0.2346580892605464, 1.1037876061340588, 1.06459304755289, 145192000000, 
0.2542814834065127, 1.1089395539467215, 1.0697201417735387, 145197000000, 
0.22624255725460998, 1.136717719137516, 1.0779563226818754, 145202000000, 
0.23630119872752392, 1.1560071607931428, 1.082600730718959, 145207000000, 
0.24018641192291726, 1.0765257441424356, 1.0895840422392264, 145212000000, 
0.22046800163457314, 1.1193266273368323, 1.0946483136131913, 145218000000, 
0.25843691225398907, 1.133873045222295, 1.1006059116566245, 145223000000, 
0.232730516954323, 1.1244569872534231, 1.1048699149531402, 145228000000, 
0.2551334621682197, 1.1531000953278003, 1.1088498768508392, 145233000000, 
0.2145828784380425, 1.1431049656081536, 1.1124586479439915, 145238000000, 
0.22882354615860315, 1.1413384038160883, 1.1158093282082937, 145243000000, 
0.2370511876749182, 1.1500723307505685, 1.1196382400305802, 145248000000, 
0.2579989022741948, 1.1449025178071204, 1.1213838301350374, 145253000000, 
0.21928840418148404, 1.1436861088925503, 1.1252844055797666, 145258000000, 
0.28012490510067767, 1.1498254891885067, 1.1277719402398823, 145264000000, 
0.23332140821980232, 1.1797578607826817, 1.1304984924329735, 145269000000, 
0.2689232640666435, 1.160905607481784, 1.1325323668657463, 145274000000, 
0.22875044081538803, 1.1812373250040615, 1.1352472414753594, 145279000000, 
0.24868336294004328, 1.1846036965581452, 1.1372362400148492, 145284000000, 
0.2291467184309752, 1.152550007349512, 1.13751663420147, 145289000000, 
0.2573084574639353, 1.1886250711662787, 1.1404159982735134, 145294000000, 
0.22455932323671948, 1.1691585619963707, 1.1423013105983129, 145299000000, 
0.28202973497898565, 1.166785320972594, 1.1439427048027528, 145304000000, 
0.24575294805683048, 1.2068406460194672, 1.145480004390371, 145309000000, 
0.240361005340577, 1.17930044116402, 1.1463800294021906, 145314000000, 
0.2352342262839254, 1.1738084496044012, 1.1472994866680493, 145319000000, 
0.2447062337490381, 1.2117219028400115, 1.1486593815006365, 145324000000, 
0.254985285980448, 1.2113009429680568, 1.149429032928086, 145329000000, 
0.27455735633205025, 1.235089838835474, 1.1503030552246836, 145334000000, 
0.22422563020412914, 1.1409274930290318, 1.1512607129452197, 145339000000, 
0.25885414204959195, 1.234415892750278, 1.1516810164933526, 145344000000, 
0.23950702528204215, 1.1975259089242771, 1.1525310842370744, 145349000000, 
0.2509758806174626, 1.2106237786916336, 1.153086929576081, 145354000000, 
0.2501602446588351, 1.2009535730614307, 1.1532649804954302, 145359000000, 
0.26760565137129644, 1.194323302838525, 1.1541110064480236, 145364000000, 
0.25687465068279125, 1.2011625796239727, 1.1546883529211183, 145369000000, 
0.29342228208635945, 1.1769081097061735, 1.1555068313410117, 145374000000, 
0.22860060947241123, 1.18921736145299, 1.15600208368641, 145379000000, 
0.25209189236449264, 1.2176307306365264, 1.1562380739050342, 145384000000, 
0.2708829526341448, 1.1897837772786306, 1.156635708142869, 145389000000, 
0.24960599230156316, 1.1875428485941775, 1.1570306058034252, 145394000000, 
0.23156332350407774, 1.181319757923673, 1.1575564496883535, 145399000000, 
0.2533390426931722, 1.178008366594691, 1.1577106165807765, 145404000000, 
0.24423847978779165, 1.1843755959198865, 1.157558411913977, 145409000000, 
0.2599687449388648, 1.2122279778448222, 1.1574493819098277, 145414000000, 
0.2684277329079799, 1.2205958663955205, 1.1573238405706574, 145419000000, 
0.24464224898034959, 1.2158303240868296, 1.1571651395057134, 145424000000, 
0.23993610304905807, 1.2019743822745461, 1.1568555897662578, 145429000000, 
0.25616735777500177, 1.1740215999998294, 1.1560004144976392, 145434000000, 
0.26862024568573545, 1.1953917511281629, 1.1558087887951085, 145439000000, 
-26.75389967359746, -3.0037692528732953, 1.1796942077405628, 145444000000, 
-34.26739298673589, -5.774494074611071, 1.194491269875574, 145449000000, 
-24.66907923651216, -4.0029832171715585, 1.2049474361664052, 145454000000, 
-17.810067298480234, -2.691377525008031, 1.2127853556136603, 145459000000, 
-12.806470198370711, -1.7593545634276258, 1.2189873724762383, 145464000000, 
-8.990218748815845, -1.30209652681491, 1.2225223470383995, 145469000000, 
-6.482147309903164, -0.8542801128968319, 1.2256730401693956, 145474000000, 
-4.464223680014944, -0.6256791793946768, 1.2276742064573571, 145479000000, 
-3.1327302824192444, -0.3942621469972087, 1.2291561342431854, 145484000000, 
-2.144792876158737, -0.26756105215800724, 1.23043701499332, 145489000000, 
-1.5220195688505285, -0.17671327053634558, 1.2312424453297086, 145494000000, 
-1.0244573020045045, -0.16513548486808577, 1.2316717896184053, 145499000000, 
-0.5768331090332218, -0.07394911413987798, 1.232063169698711, 145504000000, 
-0.36258978220786603, -0.06045180711558311, 1.2324383249347892, 145509000000, 
-0.2776498401249038, -0.02071761018961494, 1.2325913908651978, 145514000000, 
-0.20336895825255483, -0.01772489376201575, 1.2327936779409685, 145519000000, 
-0.10393337845695237, 0.004735591004155247, 1.2326374254631365, 145524000000, 
-0.03741531233064192, -0.011502354417929253, 1.232316054522315, 145530000000, 
-0.05578394769347673, 0.0206635877533693, 1.2323659853463962, 145537000000, 
-0.01087139508612014, 0.002171172576742329, 1.2318055889456963, 145542000000, 
65.81300205997678, 20.307149245364432, 1.2665837602969048, 145547000000, 
82.4226920305378, 14.87751233646691, 1.3543934393321522, 145552000000, 
-0.1053406812192114, 2.214739160186277, 1.409966364530642, 145558000000, 
-46.41429900526575, -0.24003599289532795, 1.4356359405059436, 145563000000, 
-33.078064575859294, 0.0788769614303699, 1.4477240131585094, 145568000000, 
-23.594899746579454, 0.10940042501978359, 1.460754270037372, 145573000000, 
-16.677588992634263, 0.1407396503737994, 1.466656246214851, 145578000000, 
-11.862245201037735, 0.13817267189316923, 1.4738584070806338, 145583000000, 
-7.999916845628958, 0.1423008352104308, 1.4776610290563146, 145588000000, 
-5.777478592854982, 0.13691539469760416, 1.4800609662583195, 145593000000, 
-3.963234455825491, 0.05206463010248104, 1.4822635265040387, 145598000000, 
-0.2685663632785859, -2.385759937403775, 1.482400384238419, 145603000000, 
0.00879875433314858, -1.8514451533481613, 1.481481366737646, 145608000000, 
-0.025014051864952286, -1.1804816979862562, 1.481430276019123, 145613000000, 
-0.02200214668009609, -0.619254732266888, 1.4815469466926348, 145618000000, 
0.0004826853213088095, -0.2987671443658751, 1.4813203592177864, 145623000000, 
0.005451679027731575, -0.1279795958971099, 1.4809516954757718, 145628000000, 
-0.0743890547115192, -0.07602524170867465, 1.4809895128764627, 145633000000, 
-0.023278899912031366, 0.02294063431159326, 1.4806705145724355, 145638000000, 
-0.05140080473274541, -0.010480732520956527, 1.4804261148496267, 145643000000, 
-0.023109105075294272, 0.04600161687487932, 1.4803872985864868, 145648000000, 
-0.02147015069876596, 0.016839600946780966, 1.4800044158423225, 145653000000, 
-0.04777715576199087, 0.06569098807174766, 1.4794528898845785, 145658000000, 
-0.04908109660366569, 0.02650056523611524, 1.4799678856935619, 145663000000, 
-0.026720557601386762, 0.019408717787543068, 1.4795462174139205, 145669000000, 
-0.03861424016667983, 0.012524445365525499, 1.4796313631767832, 145674000000, 
-0.04697669988772317, 0.01245295920424772, 1.4790674063460512, 145679000000, 
-0.02380490961210395, 0.004835079966980145, 1.4788816602878443, 145684000000, 
99.06831845941868, 15.24375700318911, 1.5406972214931896, 145689000000, 
74.68660043940883, 5.8304585431314235, 1.6343890056630992, 145694000000, 
-166.1299667115221, -12.543130801871314, 1.8907282279483613, 145699000000, 
32.9677754658959, 22.390626491641424, 2.0295372122519195, 145704000000, 
-28.93672214059695, -21.816134214949432, 2.1635493492640068, 145709000000, 
2.2251301691008702, 0.35682497928543244, 2.2597848791861233, 145714000000, 
2.3788283220298956, 0.04201389837325559, 2.388759974109894, 145719000000, 
33.715608647812246, 54.41604001415508, 2.482526002777534, 145724000000, 
-29.455545009595145, -54.50688276364616, 2.5721725035774337, 145729000000, 
32.802837592516354, 63.32664536886222, 2.654613488225093, 145734000000, 
-29.41924429977838, -62.34828440710909, 2.7283487073825876, 145739000000, 
28.73247623230793, 70.75948938725034, 2.796252918798973, 145744000000, 
-26.01618941733057, -69.27647649203085, 2.852338020419858, 145749000000, 
26.167152008907525, 81.40125549831897, 2.9073559260878956, 145754000000, 
-24.702059027338144, -77.50414889743799, 2.94576149630533, 145759000000, 
1.8431233092058372, 0.8554676612692587, 2.9848822027854034, 145764000000, 
-45.30723245715178, 24.261764704618, 2.9969997101888968, 145770000000, 
-9.085252678340295, 7.434818063669779, 2.9888880388174526, 145775000000, 
-3.8830888051568326, 8.9962543560991, 2.9782347444416826, 145781000000, 
-2.702703795997071, 7.0986453809616545, 2.9726614626931216, 145786000000, 
-3.041205029260808, 9.781175071464633, 2.9669645888222997, 145791000000, 
-3.1268568814374107, 9.635422159997164, 2.9586072773621765, 145796000000, 
-3.7844935847105945, 11.65292298400538, 2.950347425394788, 145801000000, 
-1.1983129594190185, 2.744813860684816, 2.94809136667135, 145806000000, 
-0.2749455065357227, 0.2799532673896934, 2.947574332957773, 145811000000, 
0.06659137699289241, 0.2673771204390344, 2.9471781136837927, 145816000000, 
0.2126931533084376, 0.2761707858060845, 2.9469659966041317, 145821000000, 
0.41926206026920926, 0.4721330278667108, 2.9470818433484354, 145826000000, 
0.15714549701482527, 0.2409329945482032, 2.9468167552839555, 145831000000, 
0.21007302046876067, 0.28489801485340904, 2.946922928263489, 145836000000, 
0.6186585999714328, 0.6050025982536863, 2.9469778119484453, 145841000000, 
0.24915561892717536, 0.32114603862822744, 2.9474853766839675, 145846000000, 
0.36879340661399096, 0.3619475338464526, 2.9477349850118935, 145851000000, 
0.32463896291926947, 0.3617401693427273, 2.9478595970112167, 145856000000, 
0.7904963209870026, 0.6701576991704096, 2.947882809966126, 145861000000, 
0.3840391171066202, 0.4016622489908691, 2.947921823301934, 145866000000, 
0.5629311290466047, 0.5171798722759242, 2.947542463367144, 145871000000, 
0.42850696598735677, 0.42651030734830747, 2.946937547319042, 145876000000, 
0.9099410540807966, 0.7529037470724316, 2.9464308287195515, 145881000000, 
0.5167090096537978, 0.4568358902344985, 2.946037414299636, 145886000000, 
0.6903234903000879, 0.5426551761000445, 2.944998972631758, 145891000000, 
0.7158493664081731, 0.5695704763377761, 2.9447283730822176, 145896000000, 
0.8652917041237573, 0.7244110730961777, 2.9440573507227787, 145901000000, 
0.558287680515373, 0.4716614029782691, 2.9432000037816706, 145906000000, 
0.8250670555733246, 0.6649088278802036, 2.943055414075054, 145911000000, 
0.844346621881414, 0.671508574888766, 2.942330985293062, 145916000000, 
0.891104462725796, 0.6549435509075285, 2.9419991632803986, 145921000000, 
0.8361584908733286, 0.6779892572049818, 2.9422847336701494, 145926000000, 
0.9916259815334783, 0.7131888241269827, 2.9421615355578083, 145931000000, 
0.7707197730296194, 0.5728329645470104, 2.9420157972326133, 145936000000, 
1.3618532764539801, 0.9560405260751722, 2.942798628516576, 145941000000, 
0.7783119793908228, 0.5843063110719271, 2.9429122227191913, 145946000000, 
0.937128076240496, 0.7316731476530308, 2.9434297115455315, 145952000000, 
1.5226808000778511, 1.0278335396464544, 2.9432940562507013, 145957000000, 
1.043036179781547, 0.7309381875186972, 2.943531810457082, 145962000000, 
1.299744484910678, 0.8663807482041631, 2.9438641938201924, 145967000000, 
0.932913569005269, 0.6535923175513788, 2.9439669820355987, 145972000000, 
1.4055341139476467, 0.9132619287964426, 2.943532475611171, 145977000000, 
1.1361886115788418, 0.7507654870151335, 2.9433752662500634, 145982000000, 
1.4833942018260635, 0.8864192591362402, 2.9431127112014956, 145987000000, 
1.0327516390965885, 0.6402862715839772, 2.942718551754229, 145992000000, 
1.7457951595247154, 1.0066841050954534, 2.941857672642618, 145997000000, 
1.1032772351939486, 0.6713421914270933, 2.9411190846087734, 146002000000, 
1.6333056556555248, 0.8926655211911565, 2.940803781234866, 146007000000, 
1.0588543176285485, 0.6405525667933477, 2.9405539262190947, 146012000000, 
1.730410363525852, 0.9404822143240975, 2.940096795362261, 146017000000, 
1.1807307727411218, 0.678410170626615, 2.9402484817320866, 146022000000, 
1.834366490853026, 0.9307010858697885, 2.9401665624887214, 146027000000, 
1.2227314527258761, 0.6901130606812809, 2.940174664297149, 146032000000, 
2.0259335713267124, 1.048896097466768, 2.94011727350822, 146037000000, 
1.2635547780186214, 0.7082081728596915, 2.9409509902763604, 146042000000, 
1.9645827482383602, 0.9837721331402948, 2.9419463100723777, 146047000000, 
1.326743360483838, 0.690237150156803, 2.9418374816929096, 146052000000, 
2.1200361053086807, 1.0615207348207167, 2.9420688427486654, 146057000000, 
1.3535476749365927, 0.6646448818815692, 2.942608794098221, 146062000000, 
2.077520875842264, 0.9538408861812713, 2.9432649194279636, 146067000000, 
1.4291732612721484, 0.6346822495210854, 2.943434550906266, 146072000000, 
2.2879732965188078, 0.9977830266615977, 2.9438666530082505, 146077000000, 
1.4721701088340016, 0.6407762623822529, 2.9436420551305584, 146082000000, 
2.2507029915524535, 0.8936582607813718, 2.943835481781212, 146087000000, 
1.9107665090511712, 0.7818616629861812, 2.943586041525453, 146092000000, 
1.7000994689664846, 0.7071159862697665, 2.9434669325909866, 146098000000, 
2.3525424355298785, 0.8887219382862281, 2.942906240066701, 146103000000, 
1.601008944299748, 0.591470518074401, 2.9430950700567062, 146108000000, 
2.5059689723066363, 0.9200846534755659, 2.942711194756611, 146113000000, 
1.6036438023909463, 0.6006711659052406, 2.942708246953494, 146118000000, 
2.064804823485952, 0.736222229745312, 2.942833165790623, 146123000000, 
2.535907694721536, 0.8739417736581002, 2.9435142635728946, 146128000000, 
2.1669541939948953, 0.7445709215477079, 2.9439235971198023, 146133000000, 
1.71646804182915, 0.5658602633635199, 2.9442505156478296, 146138000000, 
2.5576648562524245, 0.8332985746602068, 2.9448933255053915, 146143000000, 
1.7219098562965522, 0.5564346399377531, 2.945024076662193, 146148000000, 
2.692568440311318, 0.8236541892310273, 2.946048130716875, 146153000000, 
1.736625799811261, 0.5227583242494184, 2.9458291973308612, 146158000000, 
2.695898778819819, 0.795037680518292, 2.9469711614974803, 146163000000, 
1.7769659512014329, 0.5081249731578124, 2.9476915722386123, 146168000000, 
2.790373178787658, 0.7518515965551645, 2.9479527081091006, 146173000000, 
1.8154728610806217, 0.5070994078744824, 2.9482290659462747, 146178000000, 
2.8011469429889035, 0.6682344075489646, 2.949163555229546, 146184000000, 
2.3953960664688934, 0.5880256685383267, 2.9493831288267227, 146189000000, 
1.8562026999584937, 0.41653830913067674, 2.9497345708737557, 146194000000, 
2.841986024740264, 0.6437038145988765, 2.9499395889928333, 146199000000, 
1.9126459378920722, 0.4193823118855136, 2.9503092171155667, 146204000000, 
2.4230856212435348, 0.48690115913617676, 2.9510027675251327, 146209000000, 
2.465343109206474, 0.4965067037569726, 2.951393443478219, 146214000000, 
2.459347545083381, 0.4559145375844765, 2.9513189756421485, 146219000000, 
2.4456249184083587, 0.44658386135398653, 2.951929533150895, 146224000000, 
2.4908502175186293, 0.4086660610632152, 2.952673994713738, 146229000000, 
2.5242795666551645, 0.4398954359964821, 2.953607691480033, 146234000000, 
3.00443610753322, 0.47781616398186516, 2.9542028352426506, 146239000000, 
2.0032313046959564, 0.3220850610745985, 2.954351406427543, 146244000000, 
3.1106401279805147, 0.437994812629917, 2.9560512548838855, 146249000000, 
1.6283391261003726, 0.20997747777635917, 2.9558606577454487, 146254000000, 
2.94159648584581, 0.36917961108188463, 2.9569575460850936, 146259000000, 
2.025737776773506, 0.23027184110002963, 2.957733628353402, 146264000000, 
2.5912996492596587, 0.2616403170921581, 2.9582657587807004, 146270000000, 
3.1072283376918106, 0.29126825142831286, 2.9595042508005913, 146275000000, 
2.0927435165152897, 0.1712266522618133, 2.959953498921941, 146280000000, 
3.196888728693681, 0.22463382580146016, 2.9606115315545063, 146285000000, 
2.6278418286701664, 0.1298607597911421, 2.9617386976194915, 146290000000, 
2.654580719895946, 0.1544302731679309, 2.962833111994021, 146295000000, 
2.1134888812943116, 0.1060203107410125, 2.9632866929062205, 146300000000, 
2.6498863853464445, 0.0687734036211554, 2.963734830249777, 146306000000, 
2.666582613724545, 0.1058942162242476, 2.964448684579046, 146311000000, 
2.649670387638832, 0.07985649203745536, 2.966197460513646, 146316000000, 
3.2421997632784962, 0.02140564911460242, 2.96743836121728, 146321000000, 
1.7475475958230338, -0.0008357300406014274, 2.967710182715967, 146326000000, 
2.7074435811175634, -0.03708040549795827, 2.969544608065808, 146331000000, 
2.683207969823083, -0.06444271334231334, 2.9700370047761813, 146336000000, 
2.71718634643289, -0.07073897441386837, 2.9709247987579577, 146341000000, 
2.7044772874332916, -0.11449755880531834, 2.972308316912363, 146348000000, 
2.7098794724157464, -0.18640682547847112, 2.9738632004636107, 146353000000, 
2.7361955010939423, -0.1993279659561845, 2.9740449948557584, 146358000000, 
3.2592404481148125, -0.24245853393171868, 2.9750522162073, 146363000000, 
2.172652229976181, -0.1816584552594512, 2.9756773754178694, 146368000000, 
3.292937813376602, -0.3098709955095554, 2.9767080674643154, 146374000000, 
2.3656117044383422, -0.30393949359901107, 2.9781473495109325, 146383000000, 
2.6916343586453784, -0.3288816518534133, 2.9791731978821008, 146388000000, 
3.280137265696609, -0.4256336273819807, 2.9810032029154203, 146393000000, 
2.7031494406827172, -0.38590171180685656, 2.9816081439841224, 146398000000, 
2.133631119779878, -0.325606257313334, 2.982705314771968, 146403000000, 
3.236919066419341, -0.518632491446867, 2.9844609908758764, 146408000000, 
2.6594883499057462, -0.48068934063923763, 2.9855184750794423, 146413000000, 
2.1512586065225743, -0.6565305233221888, 2.9879518746182527, 146418000000, 
3.285128790253467, -0.3322431322248691, 2.989671099893834, 146423000000, 
2.645008957398311, -0.5472328630329706, 2.99104080267859, 146428000000, 
2.715868243694772, -0.597554848230605, 2.992859561540016, 146433000000, 
34.23751075610724, 1.6352736861621389, 2.9817140303887975, 146438000000, 
10.434919911491518, 0.05835156299754513, 2.9765047913197193, 146443000000, 
9.791776052103332, -0.2358034048204897, 2.972511630762749, 146448000000, 
16.763088098244847, -0.6970728027855242, 2.965590351069696, 146453000000, 
9.751519381743105, -0.4675633528660964, 2.961091604522681, 146458000000, 
12.731569813975897, -0.7519700085976024, 2.9556362158007885, 146463000000, 
9.740746445966959, -0.7801031563121539, 2.9516115920634216, 146468000000, 
5.786422612874574, 0.12853264598132516, 2.9488356062976027, 146473000000, 
2.0357127710748664, 0.30899652187084714, 2.947355533852453, 146478000000, 
2.662262958268165, 0.49507431268875285, 2.9454538158621077, 146483000000, 
2.5910622930675697, 0.34599778635529554, 2.944228712364001, 146488000000, 
2.576829553440553, 0.34959951077552387, 2.9428090822614825, 146493000000, 
2.4640896226221782, 0.1891193757371914, 2.9413535145070515, 146498000000, 
2.528308529390161, 0.29118981543671696, 2.940167847715038, 146504000000, 
2.888678795228044, 0.30546398592529084, 2.93844406414767, 146509000000, 
2.00218389393602, 0.22362092983896606, 2.9376379345390475, 146514000000, 
2.243009239626148, 0.23493099785918345, 2.936831728278153, 146519000000, 
2.523832413361206, 0.21604394526898235, 2.935638345073247, 146524000000, 
3.2789522778522877, 0.1601918748487627, 2.934640878969199, 146529000000, 
1.945876461875388, 0.13083705774703414, 2.9339980130092127, 146534000000, 
2.658332269074284, 0.21848929562650848, 2.9325427271849627, 146539000000, 
1.9156987734856126, 0.0531179107883293, 2.9315615372962616, 146544000000, 
3.1222898736989513, 0.0671613649563148, 2.9301521786999696, 146549000000, 
1.8669771907532526, 0.06689715258117, 2.9284389951618097, 146554000000, 
2.619477275880894, 0.13847886216713334, 2.9264059741909403, 146559000000, 
1.8477883032892568, 0.04680291045561319, 2.925224569728171, 146564000000, 
2.985235563870618, 0.032670762333133076, 2.923228543907703, 146569000000, 
1.8000919302971745, 0.006841415826914867, 2.921927610916408, 146574000000, 
2.5568236500541683, 0.027549182242934928, 2.920130093503624, 146579000000, 
1.791542841482851, -0.03477593030571309, 2.9191867031050243, 146584000000, 
2.8683211344959987, -0.08390635025559048, 2.9170823403334354, 146589000000, 
1.759653601130927, -0.01974523341010381, 2.9162910762018472, 146594000000, 
2.4799252191506973, 0.008147645861220916, 2.9146135037161085, 146599000000, 
1.6960750715154864, -0.04202724278468572, 2.9148033031890654, 146604000000, 
2.163590619768473, -0.048645902949948486, 2.913735789226265, 146609000000, 
2.248030002605734, -0.09005473258128212, 2.91263964319026, 146614000000, 
2.4393870356338936, -0.07663982236561666, 2.9119025352008605, 146619000000, 
1.6223479401457779, -0.026631348777106587, 2.911586710893076, 146624000000, 
2.0712199952941623, -0.08322292633641029, 2.910905778767108, 146629000000, 
2.125037808621036, -0.12924917366566122, 2.910260543183869, 146634000000, 
2.3319522484467012, -0.11440900659551201, 2.9088592257198043, 146639000000, 
1.99776794520966, -0.11770904749260486, 2.9083940775818085, 146644000000, 
2.0214362134499404, -0.146373940282446, 2.9075993010730525, 146649000000, 
1.4921713949860846, -0.06999288905834562, 2.9064493656782493, 146654000000, 
2.249090614736443, -0.1279541908155971, 2.9050410714823305, 146659000000, 
1.4587141636642975, -0.10118337277197621, 2.9037192928096953, 146664000000, 
2.317876272898695, -0.2052971700117429, 2.902207241607019, 146669000000, 
1.420594867808538, -0.1437409549632559, 2.9010074001781683, 146674000000, 
2.103300312547387, -0.14908984541210246, 2.899666569989509, 146679000000, 
1.3667592110982196, -0.11897968378886774, 2.8985122074853655, 146684000000, 
2.1920012422525885, -0.18697162298844552, 2.896760404840842, 146689000000, 
1.3521119294860364, -0.1484209072348746, 2.896023467731038, 146694000000, 
1.9761095157050867, -0.14103191588016245, 2.895082826849287, 146699000000, 
1.2846231928318568, -0.14274388189610965, 2.894452926784884, 146704000000, 
2.0366361204049523, -0.20231593530496977, 2.893807972734538, 146709000000, 
1.2317189765312262, -0.14041592434025438, 2.8928417641763158, 146714000000, 
1.879273579651498, -0.16039892500352534, 2.892435773225151, 146719000000, 
1.223732136148441, -0.14192155656458774, 2.8923549192664106, 146724000000, 
1.873784657218121, -0.13486891437128432, 2.891323980755323, 146729000000, 
1.1520622798254399, -0.1310313542780483, 2.890715206660936, 146734000000, 
1.7456887073846838, -0.1284710635295995, 2.890431729059112, 146739000000, 
1.1067263418353468, -0.10727721726472528, 2.8896753442498193, 146744000000, 
1.4155796864997408, -0.09708746546956151, 2.888316669015887, 146749000000, 
1.3482831583242516, -0.1076369635156187, 2.887971289320071, 146754000000, 
1.354269413498887, -0.10892842484718963, 2.887471931342308, 146759000000, 
1.2561994063706257, -0.08513238168414228, 2.8860980723626857, 146764000000, 
1.5510317729739325, -0.10298333705899035, 2.884823910600381, 146769000000, 
0.9486236878165181, -0.035239617700441886, 2.884292837411994, 146774000000, 
1.4558797741460736, -0.08208937031811785, 2.8826912945033305, 146779000000, 
0.9126480683030268, -0.0361619646793821, 2.88188286759658, 146784000000, 
1.4014328934703055, -0.048706143561511234, 2.880630881895049, 146789000000, 
0.8614383541345617, -0.039589608474382074, 2.880611412187228, 146794000000, 
1.2878646836259835, 0.03949224480706298, 2.8787350060378416, 146799000000, 
0.5349250992893526, 0.11340535984880824, 2.8781855163825365, 146804000000, 
1.52354578197472, -0.05978609853341071, 2.87701805143701, 146809000000, 
0.994704798840815, 0.036111983040597116, 2.876296419658903, 146814000000, 
0.9682590735586587, 0.05293346867959041, 2.874668788760585, 146819000000, 
0.36712961126327237, 0.220907271284761, 2.873909723094566, 146824000000, 
1.39278186341583, -0.01485408852941706, 2.872707969240995, 146829000000, 
0.15564875667578532, 0.30281451382184876, 2.872013700770826, 146834000000, 
0.899950135512031, 0.10152135497494608, 2.8706703420109227, 146839000000, 
1.5950734340621062, -0.13617793089666042, 2.86899986323266, 146844000000, 
-2.7065359544548624, 1.4342691742360056, 2.8684128331813974, 146849000000, 
2.142635878442355, -0.3794271063162034, 2.866074670083551, 146854000000, 
-3.4080185121015067, 1.9925451343039815, 2.8651568504670233, 146859000000, 
6.456594554897942, -2.2734235855979024, 2.8619217369319876, 146864000000, 
-2.5327641723202188, 1.5737429904808253, 2.861376212406436, 146869000000, 
-3.9011523751655766, 2.6089577127818986, 2.859568961631097, 146874000000, 
-4.961367523153722, 3.471009941036802, 2.8578138898065486, 146879000000, 
-5.590454924024109, 4.01710301817255, 2.856302035308774, 146884000000, 
13.037114785436978, -6.946583982160523, 2.8532201078391193, 146889000000, 
-3.786917725565842, 2.939450921979103, 2.8514586814842047, 146894000000, 
-4.7572509642071745, 3.7593741757423667, 2.8497239464131137, 146899000000, 
-5.510440189847754, 4.510751477530879, 2.847330155423324, 146904000000, 
-6.164613570336222, 5.268013198573252, 2.8450171935721658, 146910000000, 
-6.7013551876419495, 5.986408356997488, 2.8422782779691946, 146915000000, 
-7.128419323996176, 6.561018455433818, 2.838531804540266, 146920000000, 
-7.398214020358689, 7.012036493453009, 2.836578368658159, 146925000000, 
-7.554687893351037, 7.4373087403184925, 2.8338643998456177, 146930000000, 
29.556880425455102, -23.663011957766557, 2.8322801442219387, 146935000000, 
-3.295956758471262, 3.3184981351031797, 2.831342435645545, 146940000000, 
-4.111015268844889, 4.287586707231467, 2.829065340957006, 146945000000, 
-4.879924437182208, 5.318540451464921, 2.8265828849138406, 146950000000, 
-5.349091083335065, 6.048467653217364, 2.8243667331004416, 146955000000, 
-5.8255257212111236, 6.783305402596593, 2.8207173842796074, 146960000000, 
-39.61816010800464, -36.7800680344777, 2.8267252829758034, 146965000000, 
-0.7286699942532489, -0.34135935558453495, 2.826971732379687, 146970000000, 
-1.355580278293268, 1.6346974030971892, 2.8254366006521474, 146975000000, 
2.6939544104112025, 2.634170081011539, 2.8245830831710483, 146980000000, 
168.1442169334179, -68.0396505255748, 2.9060301166961757, 146985000000, 
63.839254969922116, -15.158199320731786, 2.93443875723391, 146990000000, 
-4.491810439881698, 7.576875379375315, 2.931172055271313, 146995000000, 
-2.9117573208719087, 5.744032652058007, 2.9279406552236638, 147000000000, 
-0.6726520111880183, 4.504832874345176, 2.9254400961141847, 147005000000, 
-0.24224184751603187, 4.450334016890839, 2.9228041509078517, 147010000000, 
-0.27237499453387903, 4.515757129890156, 2.9208599152248143, 147015000000, 
-7.159479408701668, 4.558282102139842, 2.9159836331613174, 147020000000, 
-0.3621379115887636, 4.477101311933206, 2.913329144607319, 147025000000, 
0.12061880118648717, 4.546587876572727, 2.9096614045946176, 147033000000, 
0.08483843310289874, 4.759451328897884, 2.9075321727654018, 147038000000, 
0.18473249065313344, 4.704200620124486, 2.9053249895899715, 147043000000, 
0.22558603865537857, 4.4619190187556494, 2.902880855700089, 147048000000, 
0.37439397360787235, 4.020301926877023, 2.9014534124383564, 147053000000, 
0.5148691712570937, 3.4674618933403587, 2.8990312928631377, 147058000000, 
0.6720085329795024, 3.2946328723661717, 2.8972173631091453, 147063000000, 
0.6650063121482994, 3.0670963330779286, 2.89545244756191, 147068000000, 
0.6115644403627981, 3.313559384249624, 2.8942907467791827, 147074000000, 
0.5972434560692298, 3.3389958730090825, 2.892752910419483, 147079000000, 
0.5936472466657312, 3.370173909562104, 2.891964022155649, 147084000000, 
0.5900374821171183, 3.393134094049835, 2.8907662049142173, 147089000000, 
0.5931740002673987, 3.4098162083149393, 2.8897131844442954, 147094000000, 
0.5887822827956803, 3.4927161884952964, 2.8886113702433507, 147099000000, 
0.5617103571266775, 3.5494591632140144, 2.88751054055049, 147104000000, 
0.5656530871331162, 3.551217241772703, 2.8863003476916145, 147109000000, 
0.5602767290542896, 3.59137673980705, 2.8846314925126486, 147114000000, 
0.5774331495356271, 3.6047379502087016, 2.8828689038302495, 147119000000, 
0.5416410751999754, 3.6722265411545725, 2.881361855878885, 147124000000, 
0.5507454482765377, 3.722411367284981, 2.879387220442916, 147129000000, 
0.5187665795719426, 3.740622318754745, 2.8783014204676474, 147134000000, 
0.5271969308292935, 3.8234554645918983, 2.875183784139854, 147140000000, 
0.503152042896599, 3.82654455091028, 2.8730793743566574, 147145000000, 
0.5367030950577345, 3.826471857752127, 2.8717868409297114, 147150000000, 
0.48683600579379244, 3.8885417075328834, 2.8703110507608742, 147155000000, 
0.4934546122347702, 3.9274228261373003, 2.8684556486104493, 147160000000, 
0.4944217075845663, 3.9850018268123715, 2.8671100611114784, 147165000000, 
0.4870227739600833, 4.008505499277017, 2.8657331841750002, 147170000000, 
0.4728636866002042, 4.042334157893493, 2.8642500625459757, 147175000000, 
0.48510300617006913, 4.076916248990719, 2.863514239253275, 147180000000, 
0.4757239470477059, 4.157784365785816, 2.8628628228283928, 147185000000, 
0.46797768859197547, 4.144983775055115, 2.8614124700461634, 147190000000, 
0.48199388241748864, 4.169057150710596, 2.8607373612242206, 147195000000, 
0.4813792615700127, 4.206317869539873, 2.859392816905119, 147200000000, 
0.4837262541952869, 4.26706558997622, 2.8586557168719637, 147205000000, 
0.48111828871129686, 4.2967310029066415, 2.8574899147718136, 147210000000, 
0.47793796872366534, 4.342988585671206, 2.8560285744001463, 147215000000, 
0.49796353117682735, 4.359850988710716, 2.853590018499123, 147220000000, 
0.5199998991837351, 4.403673899830608, 2.8530019399533026, 147226000000, 
0.51687194929141, 4.437526897808506, 2.8506980494739538, 147231000000, 
0.5006833356166269, 4.453400552793618, 2.848781376337292, 147236000000, 
0.48417430482315643, 4.524462172901085, 2.846557926145304, 147241000000, 
0.5198975497786955, 4.563732332416725, 2.8455136161739096, 147246000000, 
0.527738756404813, 4.57360335641109, 2.843275185925521, 147251000000, 
0.5167910757157819, 4.649513892244158, 2.8415248116697867, 147256000000, 
-0.2925881033688504, 4.472578525367595, 2.839369240149525, 147261000000, 
-0.6500483212569189, 4.849814038581543, 2.8376114381313506, 147266000000, 
0.24770914491171037, 4.727544885163067, 2.8363901661093798, 147271000000, 
0.4477263152642526, 4.704273699728792, 2.8349988329581386, 147276000000, 
0.49812581155392577, 4.705473785150446, 2.8339068695220426, 147281000000, 
0.554388521700328, 4.751246519166028, 2.832910746700353, 147286000000, 
0.543054172030675, 4.77781736017583, 2.8322290738342275, 147291000000, 
0.5281126915463779, 4.829689379531408, 2.831276086719839, 147296000000, 
0.560647459153372, 4.8759620599755955, 2.8302520270461238, 147301000000, 
0.5682102821929534, 4.906332751717711, 2.8294091851193115, 147306000000, 
0.5966418296650544, 4.9287395282530575, 2.8283471097757076, 147311000000, 
0.5660208121765271, 4.97211007148839, 2.8274677067866243, 147316000000, 
0.5922165135935923, 4.99954958766865, 2.8259870556474005, 147321000000, 
0.6708823713441514, 5.066465004103456, 2.8240805150049093, 147326000000, 
0.6317398183754912, 5.091400106196063, 2.822603605510922, 147331000000, 
0.6892422127730157, 5.091673117642358, 2.8208805301969515, 147336000000, 
0.6456262388159472, 5.134520576261659, 2.8194438042010956, 147341000000, 
0.6716482848626919, 5.145651621298344, 2.817376479686861, 147346000000, 
0.6665592248411139, 5.172574393320402, 2.815832268584195, 147351000000, 
0.6810887534723312, 5.202248669947763, 2.8144178811433798, 147356000000, 
0.698136709341574, 5.251022844168034, 2.813298366514885, 147361000000, 
0.7305775730879992, 5.2499961952151635, 2.8113936668804387, 147366000000, 
0.7364288251025992, 5.298373040343788, 2.810405414089691, 147371000000, 
-0.6839826885089907, 4.891567600905268, 2.808336003576662, 147376000000, 
-1.0045954741558996, 3.8917510777899333, 2.8082734916961867, 147381000000, 
5.825020421956231, 5.994945440196342, 2.810231706753137, 147386000000, 
-1.0187287587309681, 5.087178561217561, 2.808340725849758, 147391000000, 
0.5672922584719198, 5.988310539533324, 2.8074192166014558, 147396000000, 
0.8392414183259158, 5.8405273301081, 2.8068816606896814, 147401000000, 
-3.3125620686654784, 4.063252110498122, 2.8048831955091305, 147406000000, 
0.9250256163123359, 4.4351740575855425, 2.8052581238185077, 147411000000, 
5.237153083679344, 6.460189594807511, 2.8067325458572014, 147416000000, 
-0.11350971621887428, 5.900143530952299, 2.8046586663637223, 147421000000, 
0.9149430504771708, 6.093685782841951, 2.803360625305405, 147426000000, 
-37.25312681806809, 37.99092326092107, 2.7655577884903755, 147431000000, 
51.58187138025653, -31.34180569638339, 2.7900191699014196, 147436000000, 
-0.868328072833671, 8.918283059722558, 2.7896895482349433, 147441000000, 
-8.401099514023299, 8.654756385820376, 2.786282368057024, 147446000000, 
-2.572957081415891, 5.24632543351787, 2.7841189349542117, 147452000000, 
0.36906836494178596, 4.241479225597725, 2.784154004344282, 147457000000, 
-15.443640729076225, 16.717764570810544, 2.7501985688600357, 147463000000, 
50.590788722560184, -19.083191841510644, 2.7699517346284455, 147468000000, 
-2.9968053596674, 9.755198446043561, 2.7686332179421496, 147473000000, 
-7.473056593920265, 8.291662218604396, 2.7647732004915566, 147478000000, 
-33.02511677203105, 47.55542518704281, 2.7284459744240945, 147483000000, 
16.21378600421524, -29.576135693217932, 2.7346024731170777, 147488000000, 
20.78646329098438, -5.707944774833983, 2.750896639176847, 147495000000, 
-43.78691767632018, 66.82095562472065, 2.7215680135204425, 147500000000, 
14.941745159964869, -17.447739656535834, 2.7298276916093185, 147505000000, 
-8.932085934870704, 25.51088674640201, 2.7096025352967565, 147510000000, 
2.5482812824097314, -5.864073170819163, 2.711142840480065, 147515000000, 
24.31419479245326, -17.808506756287365, 2.7205528165359856, 147520000000, 
-10.11667961108943, 17.36656006649377, 2.7018985650113505, 147525000000, 
-0.8648617317287925, 14.047967867041159, 2.6910604002455325, 147530000000, 
-6.64079323755031, 11.620107521558033, 2.679629320597623, 147535000000, 
-7.880620558047487, 10.956551724423662, 2.670596393715102, 147540000000, 
-7.097930466029733, 3.980345630068098, 2.6655255706564596, 147545000000, 
-9.669439356794314, 5.6783318006132495, 2.6588068634395525, 147550000000, 
-6.573166435245949, 3.91258485161098, 2.6539902784490237, 147555000000, 
-9.898046922427728, 6.222984776503576, 2.6464431777836217, 147560000000, 
-6.484911932384187, 4.1448449475969955, 2.641834496084962, 147565000000, 
-9.364067300093803, 6.228858824313949, 2.634679614910714, 147570000000, 
-6.411142138156813, 4.350382779432952, 2.6299830892120406, 147575000000, 
-9.616724064904469, 6.832205785589915, 2.622494758512188, 147580000000, 
-7.865328170657067, 5.730538384644929, 2.617534235264403, 147585000000, 
-7.689426546329679, 5.732074988861162, 2.610115670664563, 147590000000, 
-6.262158302614909, 4.794532195075617, 2.604868791535104, 147595000000, 
-7.747971575390601, 6.131592240876176, 2.60019402464115, 147600000000, 
-7.794267813733692, 6.328118436897791, 2.5918363307402803, 147605000000, 
-8.981717810609979, 7.538044905229714, 2.5840753614190444, 147610000000, 
-7.597932760094716, 6.498610124264936, 2.578741776875478, 147615000000, 
-7.620669880925314, 6.714667133738328, 2.5704323783547367, 147620000000, 
-6.037374481141498, 5.42149125979852, 2.5654759338806556, 147625000000, 
-7.379578670135332, 6.907066269174559, 2.559633545142901, 147630000000, 
-7.255571796317646, 6.914103466048231, 2.5519044781508557, 147635000000, 
-2.002209681687469, 5.546830576855157, 2.5480217802284484, 147640000000, 
0.9872776883002781, 2.6182153087469264, 2.5471773484485585, 147645000000, 
1.2596324686707048, 3.297842650894871, 2.5459827778035806, 147650000000, 
1.2319902700372132, 3.258488847450206, 2.5444633460881767, 147655000000, 
1.6209448920064817, 3.971820811800814, 2.5428083464677957, 147660000000, 
1.0680474716915866, 2.6303667034452927, 2.5423327841942918, 147665000000, 
1.610252073678403, 3.9470210270312096, 2.5408356095099243, 147670000000, 
1.0540547219277459, 2.6647036260933494, 2.5401820105241155, 147675000000, 
1.4124228227405746, 3.3648172207637645, 2.5383555099663107, 147681000000, 
1.692105415748157, 3.9545303301255896, 2.536484660443911, 147686000000, 
1.3887406641645668, 3.3294163697091914, 2.5355868462207396, 147691000000, 
1.4506827744875492, 3.340078902989726, 2.533691760800039, 147696000000, 
1.4215094049296593, 3.31382943605172, 2.5316086007838075, 147702000000, 
1.2641796968576953, 2.878628040710534, 2.5298795573926043, 147709000000, 
1.7871087153676593, 4.008487121906207, 2.5277138434792583, 147714000000, 
1.1762586068050516, 2.643488530292082, 2.5265696177061776, 147719000000, 
1.8596503476249011, 4.051566853105323, 2.5250947096217025, 147724000000, 
1.2308481309819967, 2.691866386702352, 2.5237454387556624, 147729000000, 
1.8720317547509402, 3.9803349948722735, 2.522219872907683, 147734000000, 
1.2443631919140485, 2.674267665273587, 2.5209626388028497, 147739000000, 
1.9564278731300766, 4.024637446915654, 2.5195471733959276, 147744000000, 
1.281884423352016, 2.659318109723274, 2.5187082284026743, 147749000000, 
1.97439970904678, 4.006983810924991, 2.5170895944999057, 147754000000, 
1.2975544688805414, 2.6789433790470834, 2.5166302829518177, 147759000000, 
1.9898538325565465, 4.059260427113129, 2.5157030805214875, 147764000000, 
1.6455069419355692, 3.3748488142273327, 2.5144608284618264, 147769000000, 
1.645941135875047, 3.3482449043721783, 2.5136535269850544, 147774000000, 
1.6983448191300963, 3.3748600553783725, 2.512245175139022, 147780000000, 
1.7213299794417134, 3.340395909151293, 2.5115820793936745, 147785000000, 
1.7277288989573059, 3.342756697290271, 2.510330847890701, 147790000000, 
1.3742501177303434, 2.709892521498248, 2.509205749542575, 147795000000, 
2.118085369694443, 3.996870999564081, 2.506975710199034, 147801000000, 
1.496002388646118, 2.832318077228065, 2.505625330065633, 147807000000, 
2.1720143656273874, 4.040757489943366, 2.503451317008465, 147812000000, 
1.4146647653244484, 2.6718607622777015, 2.502111417977245, 147817000000, 
2.1917119316905143, 3.9730852692862566, 2.5004125430452797, 147822000000, 
1.4448249399828879, 2.6959126511359743, 2.498982062104998, 147827000000, 
2.2374142185512382, 3.99150863636767, 2.4974488436048645, 147832000000, 
1.4631347828074424, 2.6168544021006417, 2.4967015442571276, 147837000000, 
2.2660950419043715, 3.9730661074072016, 2.49510201643449, 147842000000, 
1.6064003317779556, 2.856186276319768, 2.4937991099470973, 147849000000, 
2.2668084974963665, 3.9534204730213207, 2.4928887548054104, 147854000000, 
1.4976660080232373, 2.633080738305742, 2.491816713728025, 147859000000, 
2.2719861610262573, 3.9730099136722776, 2.4911880538095605, 147864000000, 
1.5075656367999477, 2.6308304312783477, 2.491114835081661, 147869000000, 
1.9117118288748014, 3.3061014906735897, 2.490324759156949, 147874000000, 
1.902626797346278, 3.2922967089135438, 2.489223107238328, 147879000000, 
2.3674607440477127, 3.9524293756879576, 2.4879040816889004, 147884000000, 
1.5513072774093117, 2.6372829692694504, 2.4871511650851024, 147889000000, 
1.9889193838878556, 3.244527435261786, 2.4859769033184884, 147895000000, 
2.241372719318776, 3.7483775648405167, 2.484402882398828, 147900000000, 
1.2869852218873523, 2.16913478716192, 2.484334994558501, 147905000000, 
1.991915455749038, 3.2174983154162073, 2.4813384001842866, 147910000000, 
1.9984515227257427, 3.2394567567685897, 2.4804540623149487, 147915000000, 
1.9886997432178766, 3.2436309399842442, 2.478239148183234, 147921000000, 
2.424042157833068, 3.8728571675930534, 2.477031422594389, 147926000000, 
1.5941503686315668, 2.5805066577327547, 2.4760174979466982, 147931000000, 
2.4267008740141534, 3.8731007689072214, 2.4740371167247406, 147936000000, 
1.6019662077001349, 2.5483941338742584, 2.473682801809426, 147941000000, 
2.4272363407035216, 3.8304479949881527, 2.4727961879679277, 147946000000, 
1.6248419284482454, 2.566029382868036, 2.472100709797371, 147951000000, 
2.4782024624472583, 3.8223884973234705, 2.4707612287908365, 147956000000, 
1.5999674165204345, 2.567731985974682, 2.4700147483035266, 147961000000, 
2.745515533878844, 4.275753211006297, 2.4696021823215744, 147966000000, 
2.0245849673702447, 3.1643430434480484, 2.4689176999624793, 147971000000, 
2.069512179236869, 3.1405022983828554, 2.467826645536607, 147976000000, 
1.6165001324108936, 2.5425425446073993, 2.467853708281039, 147981000000, 
2.5011048570124754, 3.7838072688022373, 2.4670041097497566, 147986000000, 
1.6362247541460322, 2.4829311552233566, 2.4656052530554127, 147991000000, 
2.089948877739053, 3.1283175943377297, 2.465061583148494, 147997000000, 
2.4807324867386473, 3.717394367997608, 2.463452635838929, 148002000000, 
2.0871999056159325, 3.099341738714382, 2.4620328850026327, 148008000000, 
1.6562705261660913, 2.467549351924499, 2.460791832503588, 148013000000, 
2.5474594378462267, 3.6738398332905384, 2.4595225773841585, 148018000000, 
1.7784040603612887, 2.612846600621483, 2.4581158953099362, 148025000000, 
2.5223194970760883, 3.665169773440586, 2.4566394180174753, 148030000000, 
1.6519608205569873, 2.4235311798281662, 2.4550758502413945, 148035000000, 
2.090049193941934, 3.012034177704407, 2.4547869464311463, 148040000000, 
2.0846782561508945, 3.0437322708905032, 2.4538739424723857, 148045000000, 
2.491002171021068, 3.641652645713851, 2.4528937616035282, 148050000000, 
2.04281571182287, 3.032334333731031, 2.451708596034207, 148056000000, 
1.6518300689903302, 2.4040020364978996, 2.451179520266507, 148061000000, 
2.509637867305048, 3.619082103862137, 2.4503367960252227, 148066000000, 
1.619042366933568, 2.362407038771143, 2.4501354067973167, 148071000000, 
2.472744749900613, 3.6051538886902, 2.4490508133096602, 148076000000, 
1.6249383604001357, 2.3421352427906177, 2.4487488439506513, 148081000000, 
2.4681027797309887, 3.527845335580591, 2.4475629963638945, 148086000000, 
1.6264098869998849, 2.35614397713679, 2.4468591690460655, 148091000000, 
2.477257839307143, 3.5072751939726223, 2.446332112350107, 148096000000, 
1.6197230416174637, 2.3388358805577143, 2.445393073772065, 148101000000, 
2.019272845489058, 2.8898217193894986, 2.4447966046298655, 148106000000, 
2.0451426286941703, 2.917547848664437, 2.4437089247057098, 148111000000, 
2.4387022904317313, 3.4947620576991985, 2.4422990899103088, 148116000000, 
1.608308554705111, 2.2861217477564737, 2.4412554224795633, 148121000000, 
2.4283083590098067, 3.453198306993123, 2.4403659874888883, 148126000000, 
1.6052330754628885, 2.3225048748390673, 2.439441454972619, 148131000000, 
2.423307648319125, 3.4419425362555733, 2.438347028296369, 148136000000, 
1.5675768523165192, 2.2919960030435322, 2.4378289894776746, 148141000000, 
2.4080819447267237, 3.41129140878878, 2.4368114159654617, 148146000000, 
1.5790511326359535, 2.2194949979358882, 2.4356899625425394, 148151000000, 
2.3788962000695846, 3.366359231578042, 2.4350379650704985, 148156000000, 
1.5538650837656132, 2.2374023419271643, 2.434221094251216, 148161000000, 
2.3676925677870746, 3.3586403533130014, 2.433246243461555, 148166000000, 
1.5170661834783763, 2.206481193406747, 2.432816001291713, 148171000000, 
2.321950698111897, 3.340173609676906, 2.432214263554901, 148176000000, 
1.8866216582173831, 2.7717448364642725, 2.4312853360454376, 148181000000, 
1.904481941941729, 2.776964952449095, 2.4302602572156062, 148186000000, 
1.5044133297580256, 2.182598122207471, 2.4297904335380887, 148191000000, 
2.3033585068705866, 3.291553234260168, 2.42888482442841, 148196000000, 
1.4545126116982479, 2.1514126377165432, 2.4279952726430136, 148201000000, 
2.2778677935068092, 3.262313101292001, 2.4273431047350886, 148206000000, 
1.495038076835318, 2.1616764691959514, 2.4266165253517458, 148211000000, 
2.231136459449189, 3.23565753857745, 2.425533171350883, 148216000000, 
1.4452094668483937, 2.151388396096203, 2.4249632051228933, 148221000000, 
2.192980421500046, 3.225777506544691, 2.42364786061626, 148226000000, 
1.4150026705398246, 2.1088366560847995, 2.4235411755049743, 148231000000, 
2.1198071138020356, 3.2252056644981457, 2.4219316957395676, 148236000000, 
1.3949437066253887, 2.1001424355172404, 2.422179137861391, 148241000000, 
2.0796066633320116, 3.210691164747126, 2.420686886673081, 148247000000, 
1.721462259325231, 2.643446536784254, 2.4194049739497014, 148252000000, 
1.3656475159875308, 2.114594757831707, 2.4189852643804453, 148257000000, 
2.057546623834958, 3.162412665289868, 2.4179983603559623, 148262000000, 
1.3228202501548365, 2.0587518364859494, 2.417285064896619, 148267000000, 
2.0147695972492676, 3.13047466728021, 2.416427535329557, 148272000000, 
1.414486104974495, 2.301694578667343, 2.4151849576154594, 148277000000, 
1.6208599055000275, 2.565768282543884, 2.4145724716283636, 148283000000, 
1.5985121119965175, 2.5887800311737483, 2.4131828592709343, 148288000000, 
1.5829053332577216, 2.5718422370532323, 2.4121046244255933, 148293000000, 
1.5653051026712501, 2.5563643397842246, 2.411432712754601, 148299000000, 
1.523222081306901, 2.5698607924797194, 2.41041739336171, 148304000000, 
1.5293056906062303, 2.551696658965355, 2.4098254449640324, 148309000000, 
1.5002657816012397, 2.541784853628851, 2.4087930023395416, 148314000000, 
1.4665964356424108, 2.52810254520695, 2.4079744484981656, 148319000000, 
1.47508412953949, 2.5065995162690258, 2.407484846118584, 148324000000, 
1.4370748897034216, 2.499765675234421, 2.4061388815601203, 148329000000, 
1.4230911045159145, 2.5196438481985695, 2.405963309044225, 148334000000, 
1.4186792391764529, 2.5136375065443755, 2.405549791449667, 148339000000, 
1.3897603840265336, 2.531586339792463, 2.4054620947116674, 148344000000, 
1.344839765320441, 2.534549399730063, 2.4040133146977882, 148349000000, 
1.3373687654485655, 2.4880349924103697, 2.403502220889149, 148354000000, 
1.3419594707572025, 2.479604071043123, 2.402352757460445, 148359000000, 
1.2960324024108547, 2.480702612626254, 2.401379434345078, 148364000000, 
1.3065150636535063, 2.4582800358879027, 2.4005318978268253, 148369000000, 
1.2509679327714212, 2.4824093151770192, 2.3994564476925557, 148374000000, 
1.2503703563190254, 2.495973839633972, 2.3980025236087408, 148379000000, 
1.2009648168699043, 2.469014541720765, 2.396485368598121, 148384000000, 
1.1828751773271122, 2.462689682281211, 2.3952915284909353, 148390000000, 
1.1668044848640002, 2.4585261973361114, 2.3941429785696315, 148395000000, 
1.1607267129674186, 2.4524143392637483, 2.393037568755755, 148400000000, 
1.117828548365368, 2.4377330864738562, 2.3920599000308806, 148405000000, 
1.0778483790096425, 2.4991174564822676, 2.3908947884055904, 148410000000, 
1.0241854252967006, 2.4205174548062636, 2.3901050185129895, 148415000000, 
1.0015238152721124, 2.4510509257962214, 2.389262370492613, 148420000000, 
0.9775178685662035, 2.4537309361668633, 2.3882502687796006, 148425000000, 
0.9898448070445112, 2.448255418761356, 2.3880068860655457, 148430000000, 
0.8800198917700117, 2.472023724861047, 2.3874309998216043, 148435000000, 
0.8987272295651835, 2.466468687893712, 2.386491953906616, 148440000000, 
0.8681242652675805, 2.4341220188086705, 2.385716548022426, 148445000000, 
0.8531696601257629, 2.4378397861153376, 2.3852508817461135, 148450000000, 
0.8065404650373905, 2.4413287108562636, 2.3840657515639223, 148455000000, 
0.7656504299835063, 2.426068409120184, 2.3828423683796873, 148460000000, 
0.8008012504796018, 2.4624753973494373, 2.3819874780211236, 148465000000, 
65.32679999780343, -45.77706879851928, 2.411573132604266, 148470000000, 
103.9659501944232, -20.658571561798052, 2.460998262753578, 148475000000, 
39.86039935634962, 20.579003614647693, 2.4783752851929135, 148481000000, 
2.1292542730712434, 9.808667341914369, 2.4765242723200647, 148486000000, 
-0.7779098268060266, 5.2638840032292, 2.473670107114575, 148491000000, 
2.203081472370663, 2.3616295017157047, 2.4734100814861266, 148496000000, 
0.7128553202540558, 4.000780014784789, 2.471609928296126, 148501000000, 
0.2915361653020754, 7.033399606292033, 2.4682699364745444, 148506000000, 
1.2743837754870904, 2.675894098916996, 2.4692193821419863, 148512000000, 
-6.906560454585034, 13.218121625214415, 2.4615326978869816, 148517000000, 
6.367967311295287, 0.14207801660987981, 2.4660821757665015, 148522000000, 
-0.6498131980128364, 3.942298491452962, 2.4660508846777915, 148528000000, 
0.07645604829731208, 3.9138642497399467, 2.4665655836933316, 148533000000, 
-15.28756984991918, 20.884548226109057, 2.4498255753184557, 148538000000, 
18.218826313809586, -6.8354702911717835, 2.4609109669316234, 148543000000, 
-0.6761625095582664, 3.8442681992413106, 2.461012892653267, 148548000000, 
-1.036182342716623, 4.369295247705887, 2.4609200001422336, 148553000000, 
0.14866685051746384, 3.9759920238459068, 2.4612139287020787, 148558000000, 
0.5635610641240495, 3.95675026510272, 2.4617824600564076, 148563000000, 
0.6537556076012722, 4.070839939770848, 2.4619520989028776, 148568000000, 
0.6299139974183796, 4.2397556249619415, 2.4621300045936203, 148573000000, 
4.986826832042466, 6.347558594110572, 2.4629051044002632, 148578000000, 
0.962620956445886, 5.766517676557797, 2.462600611527903, 148583000000, 
0.9329865444344528, 5.644618428097823, 2.4608159961462013, 148589000000, 
-0.3440639008465063, 5.3035459425316365, 2.458953232599615, 148594000000, 
0.09621066159160116, 5.438751877663183, 2.457573956269215, 148599000000, 
0.7067177852085792, 5.371068258312336, 2.456381936849802, 148604000000, 
0.7303210406812545, 5.188778763978153, 2.4557134064597483, 148609000000, 
0.7382253013926335, 5.129548580820596, 2.454610844329758, 148614000000, 
0.6769976864145474, 5.103756715442862, 2.4537545898033604, 148619000000, 
0.6447923684590131, 5.056636918379678, 2.4533067662092574, 148624000000, 
0.5980135130532217, 5.100347843505478, 2.452322519533898, 148629000000, 
0.5786688337652061, 5.052600351533661, 2.4520868787332435, 148634000000, 
0.5542916960938937, 5.03857542228941, 2.4513779585353235, 148639000000, 
0.5732445264621777, 5.0705185597610285, 2.4510140833689182, 148644000000, 
0.49883732454994645, 5.06005653435798, 2.4501354007147755, 148649000000, 
0.5035119339338388, 5.074839816355146, 2.449655733497827, 148654000000, 
0.4698278405702644, 5.06778640856321, 2.449008376300062, 148659000000, 
-2.517088688198304, 3.462904512195074, 2.4474850693594226, 148664000000, 
6.09209247700688, 5.830727186500179, 2.4491415684350852, 148669000000, 
-0.863380797094419, 5.414777926419223, 2.447285194149989, 148674000000, 
0.16378926178019487, 5.295855924039153, 2.4455580068944838, 148679000000, 
0.48813452664794194, 5.28158407009484, 2.4448438137160355, 148684000000, 
0.3636010953547002, 5.2186832133218335, 2.4433629598823177, 148689000000, 
-2.5176575166050386, 4.194576734139448, 2.441836300553168, 148694000000, 
2.340296384818843, 4.550513664846724, 2.442110003552289, 148699000000, 
0.8467443289372337, 5.7112668646683264, 2.441069668545388, 148704000000, 
-0.014275493818355016, 5.2863678298306045, 2.4396793394194267, 148709000000, 
0.27826166365856814, 5.27018528134675, 2.43902613853531, 148714000000, 
-2.4602152709871126, 4.085687076734995, 2.4375743866456117, 148719000000, 
3.8555668557356384, 5.414438426315571, 2.438567481815117, 148724000000, 
-0.8530508582221321, 5.72401998337412, 2.437367648264873, 148729000000, 
0.11546063712945104, 5.27492524028577, 2.4366761384165883, 148734000000, 
-2.0950727492526697, 4.479765110644211, 2.435086898291341, 148739000000, 
2.045659420902072, 4.573958331857512, 2.4365213241506782, 148744000000, 
1.7004073007421259, 6.029337242488196, 2.4362863093910234, 148749000000, 
-1.0184626672198882, 5.5511651540076725, 2.4350192120408125, 148754000000, 
-0.1235759433547712, 5.5277161241402935, 2.433531373607703, 148759000000, 
-3.2963504837370503, 3.944423060301771, 2.432363505906615, 148765000000, 
3.093319956664404, 5.212670806411453, 2.433780767132234, 148770000000, 
-0.968547782383405, 6.1238999452720275, 2.432448944762348, 148775000000, 
-0.6519594510648428, 5.495177024153901, 2.4312052253785374, 148780000000, 
-2.760035398062695, 4.241963654348375, 2.429548044715466, 148785000000, 
0.30845549523899696, 4.184028280711984, 2.42954481053552, 148790000000, 
3.9960540042099866, 6.599029843355522, 2.4303888625739773, 148795000000, 
-1.5607883007490109, 5.947461594315047, 2.4286624350191577, 148800000000, 
-0.4446418046986842, 5.690733212245429, 2.42751870396882, 148805000000, 
-4.5044380229601755, 3.5226751530914533, 2.42611380467248, 148810000000, 
0.3228865684027319, 4.289895349685534, 2.426512000537244, 148815000000, 
2.804944201474101, 6.8214349701782755, 2.426879400072421, 148820000000, 
-1.1963856928916565, 5.8565207816934475, 2.424817934281129, 148826000000, 
-3.7377531369382195, 3.6835136778173614, 2.423710829529491, 148831000000, 
0.472359128371899, 4.4078188783483245, 2.4242983323731053, 148836000000, 
3.028294801726216, 6.600846623909499, 2.425043468378426, 148841000000, 
-1.9520597006985951, 6.478962737094816, 2.4241088887406725, 148846000000, 
-2.148673132562395, 5.427945213361192, 2.422113678531322, 148851000000, 
-1.525014115345418, 4.076445133755498, 2.4214946571636897, 148856000000, 
0.5875713040149921, 4.593720570971597, 2.422353980010305, 148861000000, 
3.3423090239030255, 7.184873854564542, 2.423292144966202, 148866000000, 
-1.917806409021157, 6.2650311721772285, 2.4211295379747413, 148871000000, 
-3.462222067814902, 4.852624799122677, 2.4192999449320824, 148876000000, 
-0.6116835901595687, 4.380863852266618, 2.419462679950095, 148881000000, 
2.1233413795253178, 5.350147644662893, 2.421021318015596, 148886000000, 
0.6709174616331335, 7.04159285665997, 2.4202710730209227, 148891000000, 
-1.9593228758199752, 6.364018214900281, 2.4188186716414686, 148896000000, 
-2.8159675157255055, 4.144421310319095, 2.417515968828277, 148901000000, 
0.46995605963509707, 4.7654518813486275, 2.4184164493134546, 148907000000, 
1.602644798182842, 6.687779470485592, 2.418726555908326, 148913000000, 
-3.0488496861344503, 6.065603420762762, 2.4166335259803726, 148918000000, 
-1.7821684307089087, 4.430583043093621, 2.4166455810556737, 148923000000, 
0.4292547806270026, 4.856551158567731, 2.4166713319956146, 148928000000, 
2.9198967470049997, 6.385215705313212, 2.4181874508811374, 148933000000, 
-1.0571182877194663, 6.99301473030539, 2.416723621477337, 148938000000, 
-3.938353345535109, 5.131740914965677, 2.414647161374401, 148943000000, 
-0.28774163186319884, 4.835918451689959, 2.41468636671466, 148948000000, 
0.2238130317296957, 5.030143035483923, 2.414825342696263, 148953000000, 
3.0108760942070427, 7.04833144537599, 2.415932741851931, 148958000000, 
-1.7987588421895604, 7.2128110455886985, 2.4145774421687687, 148963000000, 
-3.6310163783384333, 5.174782412679668, 2.411930976447879, 148968000000, 
0.026116885698092607, 5.005405942591968, 2.412579241557049, 148973000000, 
0.060543667409197914, 5.16905826079887, 2.413189081543168, 148979000000, 
-0.3342680885965411, 5.250817230502722, 2.4135249251370214, 148983000000, 
3.5989892669251304, 8.408698920077727, 2.4140619211112493, 148988000000, 
-3.5503889271698363, 6.3765788536484775, 2.4116786169645157, 148993000000, 
-0.8323814464583228, 4.935804875393224, 2.4121773702036773, 148999000000, 
0.06019555016208979, 5.279178030402372, 2.4127091185884906, 149004000000, 
-0.31430482265017345, 5.326536908219437, 2.4131311728127818, 149009000000, 
2.3172554491268618, 7.004596232594615, 2.4144906041985945, 149014000000, 
-0.9331746509169623, 7.891846804962821, 2.4134272491099393, 149019000000, 
-3.5171098229541258, 5.431940865957947, 2.4115367844480278, 149025000000, 
0.07729130165203224, 5.304263836521745, 2.4120977877397296, 149030000000, 
-0.09985288733265202, 5.437243310123116, 2.412010942890471, 149035000000, 
-0.4126897985557209, 5.508186448340621, 2.4124316098496164, 149040000000, 
1.4068826642164143, 6.542541886585136, 2.4132277590957054, 149045000000, 
-0.8250334715065978, 8.293218842375486, 2.4116495394023216, 149050000000, 
-5.581448242794153, 4.473297092226862, 2.4096119442109183, 149055000000, 
-0.3520550947759453, 5.417631680195111, 2.409709126132082, 149060000000, 
-0.11022407692436435, 5.584589712126625, 2.4099267869911176, 149065000000, 
-0.5052258825520496, 5.694964434763061, 2.4097826124299657, 149070000000, 
-0.5984526875837378, 5.788223628872279, 2.409993903160031, 149075000000, 
1.8879726403913402, 9.222059601602766, 2.4102995592118184, 149080000000, 
-4.501927355435318, 5.478439315770773, 2.408419310518291, 149085000000, 
-0.39369230632623337, 5.602507307466392, 2.408885865805553, 149090000000, 
-0.07662274163936786, 5.750318340009766, 2.4095148953551275, 149095000000, 
-0.45405172933229565, 5.846356128580215, 2.4103753008905002, 149100000000, 
-0.5873984940010322, 5.931048665410028, 2.4107914477430996, 149105000000, 
-0.6168480822437094, 5.982852600254258, 2.411249060265151, 149110000000, 
0.10063913074220798, 8.709731320287569, 2.4112615783436757, 149115000000, 
-2.907719009194561, 5.395373539183897, 2.410673488182205, 149120000000, 
-0.17658695175581268, 5.895411550665206, 2.4113645532991717, 149125000000, 
-0.30573276601685073, 5.944295211563205, 2.4115813483123905, 149130000000, 
-0.5808546985531299, 6.043001023865392, 2.4118148065090925, 149135000000, 
-0.6371522386931018, 6.118996355745733, 2.4117750359989634, 149140000000, 
-0.6500044075230001, 6.245690830133, 2.4116319255070704, 149145000000, 
1.8716906595140976, 9.296367104577655, 2.4118487969210767, 149150000000, 
-4.339475807944961, 5.409281211153743, 2.410027521633431, 149155000000, 
-0.2929824194341495, 6.120780601919346, 2.4096417229775304, 149160000000, 
-0.2442759733730844, 6.21477296110219, 2.4102231671045358, 149165000000, 
-0.5037878761686438, 6.263799019728545, 2.410206114915644, 149170000000, 
-0.6234616877855138, 6.276172619472454, 2.410077906660244, 149176000000, 
-0.6018371653577989, 6.397142544501162, 2.4102003831378833, 149182000000, 
-0.6592438425447948, 6.447046535614334, 2.4105394157296605, 149187000000, 
2.195015188342277, 9.172641001105877, 2.4119078268178273, 149192000000, 
-4.388132797138969, 5.674210661627329, 2.4105782462331926, 149197000000, 
-0.5216883076942873, 6.342155915526797, 2.4114990033723838, 149202000000, 
-0.30940444884858287, 6.449116631913814, 2.4121306286810262, 149207000000, 
-0.5537782515015366, 6.471409891858808, 2.4128326213383824, 149212000000, 
-0.6262451361354048, 6.517973496280751, 2.4133726182742823, 149217000000, 
-0.6495177396942031, 6.593643734145714, 2.413949983846032, 149222000000, 
-0.6436780542208594, 6.6223841508444545, 2.4141637112754277, 149227000000, 
-0.6287635982364173, 6.702442711911647, 2.414966727669684, 149232000000, 
-0.6358785592563222, 6.722091129320567, 2.414971253087394, 149237000000, 
-0.6311132428768654, 6.772002034474941, 2.41543386055118, 149242000000, 
-0.6216119504259088, 6.820633892990482, 2.4145529122535407, 149247000000, 
-0.6391194950415643, 6.816163219532104, 2.4146638850127986, 149252000000, 
-0.6446663999310223, 6.881279328267166, 2.4145703858151473, 149257000000, 
-0.6302168099301135, 6.886436991191686, 2.414879408840932, 149262000000, 
-0.7480572477344067, 8.17848622694803, 2.4142969991171417, 149267000000, 
-1.1371292074701023, 6.6263490846763045, 2.414033054246041, 149272000000, 
-0.2507047992880481, 6.7921693246697314, 2.414119858329282, 149277000000, 
-0.4522169429912135, 6.848304293741685, 2.4148477025311896, 149282000000, 
-0.5333051450804988, 6.868079703450903, 2.414836759283218, 149287000000, 
-0.557187927859585, 6.898972348505438, 2.415296774410327, 149293000000, 
-0.5938346257960929, 6.9213392979783475, 2.416263622933339, 149299000000, 
-0.5880208155754962, 6.980272711145393, 2.4164936652703872, 149304000000, 
-0.5843995493332442, 7.053901127089929, 2.4176453865062384, 149309000000, 
-0.5301322297724513, 7.058733237638392, 2.4180246686541667, 149314000000, 
-0.5397527772133272, 7.0653271221039775, 2.4187218522103042, 149319000000, 
-0.5471776405955013, 7.096980431560116, 2.419317677583751, 149324000000, 
-0.5373194904227447, 7.138231120342313, 2.419514858193402, 149329000000, 
-0.5145607799595372, 7.167521947804578, 2.4202682453684576, 149334000000, 
-0.49257737413085373, 7.199588235425821, 2.4204254683343818, 149341000000, 
-0.4822373387456107, 7.1778717023084875, 2.420840752181212, 149346000000, 
-0.5369562096259463, 7.221922500013712, 2.4206963798390495, 149351000000, 
-0.4911523964198435, 7.219050520484204, 2.4207981022789813, 149356000000, 
-0.48512446945008963, 7.227460894278752, 2.42076838498114, 149361000000, 
-0.4660790964037564, 7.254878211910416, 2.4214891721872362, 149366000000, 
-0.44020487788609153, 7.273727873672623, 2.4214354769971185, 149371000000, 
-0.43310729434193224, 7.288809145993115, 2.42144220631835, 149376000000, 
-0.43741662963514916, 7.309502907183915, 2.4216726760136917, 149381000000, 
-0.4217131048807444, 7.328155245997376, 2.4225193801132003, 149386000000, 
-0.4125515153614598, 7.359733021391002, 2.422617221606498, 149391000000, 
-0.4255261582767145, 7.351395120484329, 2.4229613754385726, 149396000000, 
-0.3947845509822681, 7.377995269754193, 2.4237834914071072, 149401000000, 
-0.39894944021330886, 7.382808994861988, 2.424554288853758, 149406000000, 
-0.36860977439199594, 7.378860267591529, 2.425543068267404, 149411000000, 
-0.33995258678865, 7.411362040881722, 2.425864131241332, 149417000000, 
-0.34240569296434176, 7.411335437348237, 2.4260186745154995, 149422000000, 
-0.33691563788708356, 7.392317520353324, 2.4268431268041337, 149427000000, 
-0.2999422876561798, 7.4415794632606485, 2.427402845493581, 149432000000, 
-0.2944801128578987, 7.465277740162185, 2.4279488706577292, 149438000000, 
-0.2919906221060255, 7.452888157015012, 2.42840892233672, 149443000000, 
-0.280965562008846, 7.469848689945006, 2.4287422915524584, 149448000000, 
-0.24980167545528661, 7.506501040694691, 2.4291416845741893, 149454000000, 
-0.241579003002988, 7.49861592042311, 2.429564034820585, 149459000000, 
-0.24966593544987223, 7.501936271900859, 2.4299812867654866, 149464000000, 
-0.21608499398539804, 7.5140556237178275, 2.43046333653859, 149469000000, 
-0.23566961260029817, 7.504730411225413, 2.43095338478568, 149474000000, 
-0.21606425124729484, 7.519553897226622, 2.431186777400124, 149479000000, 
-0.20258079909578924, 7.5390652166329035, 2.431587787526983, 149484000000, 
-0.18998535511235795, 7.535331430736129, 2.431927829420021, 149489000000, 
-0.17215073961566926, 7.552709984402649, 2.432711981707875, 149494000000, 
-0.1583742234506233, 7.571247311755382, 2.4327866507962943, 149499000000, 
-0.1499660545927199, 7.561835305416414, 2.4337954137708464, 149504000000, 
-0.11684332075086538, 7.586510707231722, 2.4342216429114245, 149509000000, 
-0.08945044844599878, 7.641871334111834, 2.4346970717335004, 149514000000, 
-0.08300699675155469, 7.595566245977648, 2.4353881141226896, 149519000000, 
-0.07976281002276654, 7.605364139133216, 2.435531845983801, 149524000000, 
-0.03929817680746289, 7.617343591470616, 2.436259517096115, 149529000000, 
-0.0928906311734175, 7.621040090583207, 2.4364553778926297, 149534000000, 
-0.02849431283217304, 7.658581001153134, 2.4370049765697606, 149539000000, 
-0.05283013028196133, 7.645909306012356, 2.4372374363342724, 149544000000, 
-0.046394303699306055, 7.640791248856911, 2.4378177845719873, 149549000000, 
0.025446171352390023, 7.6554771461727995, 2.438243132655273, 149554000000, 
-0.005822980319958436, 7.677244638761286, 2.4390617081933614, 149559000000, 
0.04368394707521413, 7.635786184352869, 2.4396234342312884, 149565000000, 
0.038479465357237494, 7.708782408700895, 2.4402223372343634, 149570000000, 
0.047150428690702406, 7.668716532220928, 2.4409223930052892, 149575000000, 
0.05188657959056449, 7.698078552430419, 2.4419414746819736, 149580000000, 
0.06718019912498477, 7.661111098848049, 2.442261847848059, 149585000000, 
0.09342705603849648, 7.674568920370559, 2.443381889728955, 149590000000, 
0.09051971805591986, 7.707068177791604, 2.444168104498736, 149595000000, 
0.0634752395070326, 7.697119126910858, 2.444348145548684, 149600000000, 
0.13987029418020433, 7.68731311442839, 2.4449476263565275, 149605000000, 
0.19333792317510537, 7.72161848794733, 2.444812899331638, 149610000000, 
0.16312695629457574, 7.691451119315722, 2.4458377975977794, 149615000000, 
0.1952095085786154, 7.74351563010267, 2.4460569952597777, 149620000000, 
0.2076546537442454, 7.706367863503127, 2.446673780973785, 149625000000, 
0.2094572991880508, 7.7058381565255205, 2.4467697031966287, 149630000000, 
0.21377377124223002, 7.663518444405798, 2.447001653222498, 149635000000, 
0.23635907499004283, 7.711186271548805, 2.44751740237995, 149640000000, 
0.24146119702614827, 7.691086171149804, 2.447905646184229, 149645000000, 
0.2528185749006342, 7.748077454341076, 2.4487387436421817, 149650000000, 
0.28451531085601195, 7.661499471579771, 2.4488397309006373, 149655000000, 
0.3193103935971007, 7.703126622235564, 2.4492409344579227, 149660000000, 
0.31250171242688735, 7.732983170705993, 2.450632605970341, 149665000000, 
0.32014232479018123, 7.667323075981975, 2.4516714358332994, 149670000000, 
0.34332981606043844, 7.730184377969837, 2.4521859667992802, 149675000000, 
0.3836456809496684, 7.671073529895032, 2.4539148052517343, 149681000000, 
0.3860984411289853, 7.710641966692565, 2.454406926203681, 149686000000, 
0.37638977981426336, 7.701524571946338, 2.455155649465853, 149691000000, 
0.36124523552896604, 7.70489170987086, 2.4561553050826226, 149696000000, 
0.4243030479343119, 7.7056406328707485, 2.4570004228268107, 149702000000, 
0.45429446259010914, 7.669846737181616, 2.457672190636225, 149708000000, 
0.45865126089742414, 7.685536164115027, 2.4579400534002738, 149713000000, 
0.49317724629831555, 7.703931061379803, 2.4589145111485964, 149718000000, 
0.5049881076190255, 7.6894027038673896, 2.458820066477276, 149723000000, 
0.5222910269278274, 7.700640754379956, 2.4590589606063493, 149728000000, 
0.5419110423669433, 7.6778388214963025, 2.459648543325807, 149733000000, 
0.5085530095141109, 7.6721482245301615, 2.4596677916515586, 149738000000, 
0.5350624677323179, 7.656577442529749, 2.4601008551062433, 149743000000, 
0.578714996055638, 7.66334385018628, 2.460530826859482, 149748000000, 
0.5981663016177152, 7.673495899247321, 2.461204618519282, 149753000000, 
0.5990767086979478, 7.640636292289849, 2.462170305404797, 149758000000, 
0.5919071191573783, 7.645656831527879, 2.46301440450211, 149763000000, 
0.6374959847063496, 7.621642463420514, 2.4639496626764754, 149768000000, 
0.6204730992414764, 7.617400438522326, 2.465044527465794, 149773000000, 
0.6482322879156522, 7.635667786358642, 2.4662791278042917, 149779000000, 
0.6919974664053382, 7.601482020218351, 2.4671922864072644, 149784000000, 
0.7003226385713801, 7.61782028753187, 2.4679976008294684, 149789000000, 
0.6946771028300367, 7.590928966560775, 2.4693854986390185, 149794000000, 
0.7171063638691011, 7.589779286166726, 2.470615719653316, 149800000000, 
-56.71151171073845, 75.68623790697369, 2.4106422398676357, 149805000000, 
35.37445386590883, -45.594566599071804, 2.424074163456363, 149810000000, 
47.78765884493669, -3.684826402044979, 2.4524118859709216, 149815000000, 
-13.009366525628097, 11.031509130083611, 2.447252463530645, 149820000000, 
-9.633491329218195, 7.754741186780037, 2.442220550770012, 149825000000, 
-1.6981942646096373, 5.340720236472195, 2.441311263987215, 149830000000, 
0.49856875933039496, 5.253143091003677, 2.4409458601197134, 149835000000, 
0.6046283446377835, 5.617255208268431, 2.4414070252688918, 149840000000, 
0.5842514177210919, 5.963847927474089, 2.44133413599256, 149845000000, 
0.619097185274693, 6.203358446143298, 2.4418384254652175, 149850000000, 
0.6770333069147014, 6.383737602474021, 2.442403498917306, 149855000000, 
0.6695476026009654, 6.552345218256938, 2.442834319162605, 149860000000, 
0.738660330136601, 6.7005461342074755, 2.443569632393005, 149865000000, 
-40.88574151692526, 42.10458896991521, 2.405266094319365, 149870000000, 
53.341021493740044, -10.293245206771687, 2.4216742450853634, 149875000000, 
22.199170447023665, -1.3444658593851555, 2.437841522633981, 149880000000, 
-11.230561276078449, 7.201652664868637, 2.4330920704606736, 149885000000, 
-3.5498022764060617, 5.683180443756866, 2.431492635480451, 149890000000, 
0.014052178622802395, 5.164078783653726, 2.4321957167795802, 149895000000, 
0.7037486263083199, 5.343320617015959, 2.4327317466888707, 149900000000, 
0.6716302710075536, 5.676827126941856, 2.4332367143310973, 149905000000, 
-45.082353339612546, 25.75856679169121, 2.404376267153551, 149911000000, 
43.079862517059205, 10.734696406217088, 2.4304718309397697, 149916000000, 
22.593741362193107, -5.990540362071104, 2.4391465344847316, 149921000000, 
-10.55328693711793, 3.9591463473137027, 2.433352223338356, 149926000000, 
-4.402878461704165, 5.241006554057601, 2.4306202468438505, 149931000000, 
-0.41506649207428065, 5.102809461942902, 2.4306221571515354, 149936000000, 
-38.05179334855887, 8.49084617897513, 2.4094692103911797, 149941000000, 
33.13887289104398, 21.70462302741992, 2.4266960728146847, 149946000000, 
36.192333064816935, 3.345534404670589, 2.4444411686928937, 149951000000, 
-10.012837822780142, 0.7497555100781649, 2.4393239614129976, 149956000000, 
-5.803111792774906, 3.5579345892821443, 2.4368710210367697, 149961000000, 
-41.71134199156316, 10.100120247171823, 2.416943846054389, 149966000000, 
36.861301294743534, 17.51892342106721, 2.4359833092037038, 149971000000, 
22.42326345871493, 1.338596144567269, 2.4476341032630167, 149976000000, 
-7.918986206880955, 2.3078483212579943, 2.4431211593016378, 149982000000, 
-39.57124060684409, 10.81201202232166, 2.4237287927131144, 149987000000, 
32.16460922571674, 14.831563623345817, 2.437034608160286, 149992000000, 
26.619199369208413, 2.252759772499412, 2.4506016136426636, 149997000000, 
-6.533018428174877, 2.634478802330558, 2.4470940424255234, 150002000000, 
-30.36104518007635, 12.202654708448067, 2.4314672478532957, 150007000000, 
39.70557900863743, 8.012605751262807, 2.4518024474311413, 150012000000, 
-2.8218506202883513, 2.3732962551413697, 2.4505018832305163, 150017000000, 
-33.862860722798644, 11.03695238585628, 2.43198357025938, 150023000000, 
33.31749021527694, 6.594918869172733, 2.4520838711280577, 150028000000, 
-3.258341374812296, 2.7773276800304485, 2.4501978055847276, 150034000000, 
-1.1327598497250135, 12.103364691530642, 2.447820421162949, 150039000000, 
5.396227817722643, 2.472255216286781, 2.450054638257061, 150044000000, 
-14.87956024103918, 12.711314697130982, 2.439602220543321, 150050000000, 
26.967544290892878, 0.965293833036832, 2.4504497145301505, 150054000000, 
-1.2059789326611554, 2.854755191764152, 2.449208745348155, 150059000000, 
-5.7296428130980175, 13.072828017360498, 2.444805694155731, 150064000000, 
8.952951305528172, 1.7005357823421687, 2.4495310552973253, 150070000000, 
-3.6876813324837294, 10.314665764821404, 2.4441692802833352, 150075000000, 
10.68225476595313, 1.252794296301119, 2.449069058060746, 150080000000, 
-18.419168972858436, 13.412670847511839, 2.4375471378491183, 150085000000, 
16.895630263714, 0.9741224805306471, 2.4475893662788395, 150090000000, 
-16.8176839063855, 14.103391731547026, 2.436689869958826, 150095000000, 
23.409382904151375, -0.9097444639930573, 2.4459289324331084, 150100000000, 
-0.680208120457878, 3.1534966044849813, 2.4456020638386904, 150105000000, 
2.8929596879999533, 9.435718429913788, 2.4441465400088096, 150110000000, 
-0.9387369244399605, 3.1637222891365333, 2.44358542132725, 150115000000, 
2.1951829071175415, 11.018521113222373, 2.44147797733114, 150120000000, 
0.9504890934132098, 2.6965387361451296, 2.441799764822202, 150125000000, 
-0.6339075761539874, 11.652927904259675, 2.4376457245041054, 150130000000, 
3.5658737624218495, 2.0009580341216466, 2.439143132566069, 150135000000, 
-4.278963285652015, 12.563483433587084, 2.433166541113362, 150140000000, 
6.929494392188987, 1.0837560218127575, 2.4365010302451084, 150145000000, 
-14.644597686202363, 15.74607927591028, 2.42679196181143, 150150000000, 
10.963900782570386, 0.4197187824882685, 2.4337955489894685, 150155000000, 
-7.35687767949813, 14.27111007674719, 2.4251010403190527, 150160000000, 
8.91373432365878, -0.48602780495351255, 2.430349218415052, 150165000000, 
-1.3310835224655755, 3.7917028265641846, 2.4303890422565178, 150170000000, 
0.38516019779836724, 10.020533623823628, 2.4248684342603215, 150175000000, 
3.354756827867895, 1.6160286949053921, 2.4268327479680405, 150180000000, 
-1.6618616129211334, 4.29553482743662, 2.4258493380094452, 150185000000, 
3.583138160683798, 11.632714940879348, 2.4208635220973513, 150190000000, 
1.9114955257919581, 2.2828818031275118, 2.421565548923885, 150195000000, 
-1.4686553829724522, 4.352129640781861, 2.420724772115968, 150200000000, 
2.1137325760268473, 13.477583978702818, 2.41390772625592, 150205000000, 
3.919621420111254, 1.279344846675895, 2.415608712120861, 150210000000, 
-1.8103684155709456, 4.52695778200982, 2.4146749818661584, 150215000000, 
-15.698806748648723, 22.001023481690858, 2.3982197327514565, 150220000000, 
20.773826875483618, -6.102775506163943, 2.408617792890548, 150225000000, 
-0.11653142918348626, 3.500206062617902, 2.4087613655461695, 150230000000, 
-1.2429748471268287, 4.517599595692585, 2.4086982558163417, 150235000000, 
-0.014907692484486586, 4.410886874315797, 2.40878865440877, 150240000000, 
5.8065177675668345, 11.100724339340497, 2.4008596486359126, 150246000000, 
-0.3273241492366423, 3.5276194965135304, 2.4012500119278144, 150251000000, 
-1.6060066886758935, 4.915563066126857, 2.4004764387306206, 150256000000, 
-0.21083486168186258, 4.480020294836815, 2.400522363983974, 150261000000, 
0.4564973817686633, 4.453896012737535, 2.4015912862972706, 150266000000, 
-1.2793854356044316, 20.681915413163903, 2.3860454558526083, 150271000000, 
10.270391611110615, -3.637206948541979, 2.3910886299295475, 150276000000, 
-2.2035400915769268, 5.122968815648918, 2.3904502650433974, 150281000000, 
-1.1061688056671184, 4.928428578509421, 2.389856299430454, 150286000000, 
0.17370313700084344, 4.433278016437755, 2.3901082804383766, 150291000000, 
0.5687714131712691, 4.496805769839404, 2.39027328708064, 150296000000, 
0.6134983091994806, 4.74908723465961, 2.3904034978771707, 150301000000, 
0.6784010138714738, 4.962917794537017, 2.3907360266056723, 150306000000, 
3.3558916668721586, 19.80069616706414, 2.3720711084563173, 150311000000, 
7.4583161581042, -2.76902685263973, 2.3749630976141574, 150316000000, 
-2.1621054009567406, 5.563530492189861, 2.3738931048702643, 150321000000, 
-0.8353427150621149, 4.991802809663517, 2.3739251348965014, 150326000000, 
0.30129857985188585, 4.440005099753418, 2.3747855140236473, 150332000000, 
0.5802050927143962, 4.545687653146707, 2.37497325194219, 150337000000, 
0.5827020080114573, 4.802855432809426, 2.3760059588367266, 150342000000, 
0.5967451316990432, 4.94323060347604, 2.376582871031044, 150347000000, 
0.6204035682735295, 5.126666697243864, 2.378125285943761, 150353000000, 
0.6547951425028018, 5.254555307719763, 2.3787369221608694, 150358000000, 
0.6974685786357222, 5.361301609897217, 2.379973096744732, 150364000000, 
0.6685270748735441, 5.464543556992417, 2.3809006699281174, 150369000000, 
2.4788843699467633, 6.183376316059619, 2.3827870668969924, 150375000000, 
2.899069509213504, 8.161145029235456, 2.3824570953545905, 150380000000, 
0.13027908853889614, 7.557142755114052, 2.3811081875051943, 150387000000, 
0.2054487504318153, 7.081399613804072, 2.3804089975516187, 150392000000, 
0.7240047960687918, 6.705600784613339, 2.3794562261877337, 150397000000, 
-1.741391267515264, 4.339030247247854, 2.3785207728503575, 150402000000, 
1.3039576618089397, 4.742132237905504, 2.3789850471489915, 150407000000, 
0.7933739955562912, 4.8526898590982865, 2.379141977396645, 150412000000, 
4.526557862889461, 6.485421617797099, 2.3800392318673924, 150417000000, 
0.9044830883410945, 7.126572306807839, 2.3796752755823847, 150423000000, 
-2.141767464379892, 5.802780241305419, 2.3773748331850157, 150429000000, 
0.48042890524581394, 4.674951921088534, 2.37825029252007, 150434000000, 
1.055112599952741, 4.837455689755946, 2.379241217234763, 150439000000, 
3.791037174931937, 7.25412262227297, 2.380631923307836, 150444000000, 
-0.7356644492970682, 6.851767824657365, 2.3796413623131873, 150449000000, 
-2.7372146698740676, 4.362650837910058, 2.3788547048948376, 150454000000, 
0.9949714324491579, 4.718188690505422, 2.3801259710640656, 150459000000, 
3.889032497047355, 6.154142888813823, 2.38234080746917, 150464000000, 
-0.18798890101626115, 6.843197149692492, 2.381740977269886, 150469000000, 
-2.537553253246367, 5.678182041199559, 2.3800171800773815, 150474000000, 
-0.20982467796094506, 4.546683291541456, 2.3801212718995073, 150479000000, 
3.085441564416072, 5.434743309684487, 2.381834799351911, 150484000000, 
2.0652765297366162, 6.923582101457505, 2.381106986500633, 150489000000, 
-0.9050485207223228, 6.738827312156393, 2.3795636682605688, 150494000000, 
-2.798868591277993, 4.654322880031553, 2.3777694689798965, 150499000000, 
0.845897218444334, 4.640948458738501, 2.3783785342775694, 150506000000, 
5.137582014132555, 6.746900584748813, 2.379334501417976, 150511000000, 
-0.5738937373842071, 6.747879210778574, 2.377832438403185, 150516000000, 
-1.6869006834246534, 5.990423624447667, 2.3763876268774045, 150521000000, 
-1.179732826517472, 4.352859885799381, 2.3754854018637155, 150526000000, 
0.9003927263185639, 4.64668316925857, 2.3764353595812797, 150531000000, 
4.226820639412617, 6.734479694536178, 2.377975465089192, 150536000000, 
-0.5969553579939562, 6.4296857541157815, 2.377363829294275, 150541000000, 
-1.9105861552044325, 6.172257106226107, 2.3756392441705936, 150546000000, 
-1.313136049141269, 4.334314218524537, 2.376445176682774, 150551000000, 
0.8145174083552897, 4.635429286248725, 2.376410503560344, 150557000000, 
3.1687768780558874, 6.992042681381701, 2.3780742601564646, 150562000000, 
-1.2512940482746218, 6.549114486923496, 2.3768620031489722, 150567000000, 
-2.9845257761385553, 4.536592890823227, 2.375681689032992, 150572000000, 
0.5947455528684561, 4.535306676004179, 2.3768863652469623, 150577000000, 
4.986092406878167, 6.619296258314573, 2.3778378474324766, 150582000000, 
-0.8545616647607523, 6.573983944811774, 2.3766128436361305, 150587000000, 
-3.429132758021013, 5.161439120457008, 2.3748601140000023, 150592000000, 
-0.27438315908527355, 4.471641322472221, 2.375090855505055, 150598000000, 
3.5622862701028666, 6.2752418363224125, 2.375711087606396, 150603000000, 
-1.3030480907429691, 6.619035380823838, 2.3744977187475786, 150608000000, 
-1.9920276449496488, 5.95267946809207, 2.3717872570092084, 150613000000, 
-1.8667540250881887, 4.152799063268826, 2.371234448148261, 150618000000, 
0.6565501188605432, 4.535976303376755, 2.371996992046291, 150623000000, 
3.7844117152971877, 6.635607452218047, 2.373034626061553, 150628000000, 
-1.3837133565860333, 6.448076822160938, 2.3710674120109543, 150634000000, 
-2.1596806493142666, 5.914276443998877, 2.3699679150843966, 150639000000, 
-1.9075038987513626, 4.241358135742248, 2.3695985180900396, 150644000000, 
0.5739066267296546, 4.576355423798042, 2.3709215461854547, 150649000000, 
4.562032124987934, 7.076444508162526, 2.3720641425598252, 150654000000, 
-1.5155509718446987, 6.335523019423899, 2.3703492557674686, 150660000000, 
-3.806818272198142, 4.686473501664671, 2.3688677150954134, 150665000000, 
0.1274743354241831, 4.5873268536498255, 2.369835063078836, 150670000000, 
3.748324329612139, 6.606198928743362, 2.3713632041900055, 150676000000, 
-1.6840927910385997, 6.417182111866952, 2.369241568435365, 150682000000, 
-2.620189919114526, 4.239682196760732, 2.36788131723394, 150688000000, 
2.50975367730203, 5.339606399682983, 2.3689063923642952, 150693000000, 
1.5401223821134111, 6.576714786682958, 2.368920932167164, 150698000000, 
-1.8671614056183259, 6.55934745597246, 2.3668551037253236, 150703000000, 
-3.2853771357754376, 4.48639792632436, 2.3655088280008205, 150708000000, 
0.2786998068907104, 4.58508065269339, 2.3655228341270296, 150713000000, 
3.4778811716034945, 6.302576710415314, 2.366952166975382, 150718000000, 
-1.5304680014426235, 6.212605169291847, 2.365447779907984, 150723000000, 
-3.152336141361418, 6.051570504507759, 2.3633975188035987, 150729000000, 
-1.7998753778165362, 4.440771862440349, 2.3635531813043245, 150734000000, 
2.57992493242114, 5.862914816172918, 2.3648406456500957, 150739000000, 
-1.9121062371431279, 6.33086135545842, 2.3637226977720025, 150744000000, 
-2.9839605533780444, 5.971143170707816, 2.3615991774360805, 150749000000, 
-1.4487517619644095, 4.399568905421761, 2.361821745528923, 150754000000, 
0.30717563449433055, 4.72904285391442, 2.362126242898268, 150759000000, 
1.8703550955409145, 6.918277717003409, 2.362673142948564, 150764000000, 
-2.0608086662168876, 6.628146058846026, 2.3608494670801763, 150769000000, 
-3.37585586278938, 4.184728978042425, 2.359911599782617, 150774000000, 
0.20139286576346394, 4.694514745479845, 2.360545536432265, 150780000000, 
3.0101280096041227, 6.88585108255305, 2.361443626142404, 150785000000, 
-2.4005598397491923, 6.4415262677259175, 2.35941630677934, 150790000000, 
-3.168742088114134, 6.009287349633261, 2.358240108761529, 150795000000, 
-1.4789547793486704, 4.417140602249123, 2.3575631404113286, 150800000000, 
0.16398870363467097, 4.742461629571206, 2.357971704959414, 150805000000, 
2.7455864304787196, 6.91455678625571, 2.3590506117424903, 150810000000, 
-2.5978433764411433, 6.413377860887511, 2.3577044478236417, 150815000000, 
-3.5867184740162443, 5.4732514285482905, 2.355788369062669, 150820000000, 
-0.3990186793880531, 4.6724362603507, 2.355502022721687, 150825000000, 
1.906802464979201, 5.5812722024012, 2.3572820201402394, 150830000000, 
-0.002946485168914133, 6.8146711481803015, 2.356750405204554, 150835000000, 
-2.328662822043241, 6.859793269987425, 2.355072429227427, 150840000000, 
-2.972693655179927, 4.413393292314234, 2.3539012647482718, 150845000000, 
0.11541137619441474, 4.833979136036675, 2.3543373801446106, 150850000000, 
2.175525418051904, 6.367181948018109, 2.355387001469678, 150855000000, 
-2.8226603672467125, 6.663649106921116, 2.3540398776952913, 150860000000, 
-3.6743213859356056, 5.52582738344673, 2.351456276049435, 150865000000, 
-0.46541511356745147, 4.730522142216696, 2.35173286179321, 150870000000, 
-0.12969760587859377, 4.9174628656217925, 2.352083613608449, 150875000000, 
2.677632200708565, 7.623806031986717, 2.35246726597713, 150880000000, 
-3.6271301455066336, 6.421328605927669, 2.349713622383068, 150885000000, 
-2.1875298320138197, 4.556559792966758, 2.349336006888974, 150890000000, 
-0.04107711240892091, 4.929561792193762, 2.350302460984741, 150895000000, 
1.6271195790462738, 6.826950404971824, 2.3511284805058836, 150901000000, 
-2.9680849114773884, 6.978966511875303, 2.3491897677373883, 150906000000, 
-3.552534671980079, 4.842953123685855, 2.3478766346113664, 150911000000, 
-0.13436283579205408, 4.928195349757541, 2.348508850847205, 150916000000, 
-0.47084167559311707, 5.045707514988827, 2.3492748347036523, 150921000000, 
1.1734070907953422, 7.771496664141252, 2.3493550700918076, 150926000000, 
-3.9290985456424186, 6.523589779716542, 2.3474157940719484, 150931000000, 
-2.28819200674533, 4.645402096579612, 2.346840887988849, 150936000000, 
-0.15653975841638557, 5.0466559512382245, 2.3475084817978304, 150941000000, 
1.223695027362446, 5.915670738350466, 2.348008703218588, 150946000000, 
-1.2179304948499103, 7.545445490039421, 2.3471707853338333, 150951000000, 
-4.616023625048685, 5.445659871603893, 2.3450360194083175, 150956000000, 
-1.0046570480295247, 4.940069979798554, 2.3449792195835615, 150961000000, 
-0.31578823650649157, 5.153948176555336, 2.344758360562695, 150966000000, 
1.9320806301982312, 7.1894067291014725, 2.3454431949993775, 150971000000, 
-2.9892440727903735, 7.508356771526755, 2.344741322737177, 150976000000, 
-4.0011408398186905, 5.3735951507368425, 2.341996676761337, 150981000000, 
-0.4541055949102045, 5.16786498893215, 2.3425808686587346, 150986000000, 
1.0600360688566182, 6.122455555467047, 2.3432915794087714, 150991000000, 
-1.4104819629858445, 7.984367722544506, 2.3421931431644696, 150996000000, 
-4.4832157932701895, 6.079414819235697, 2.3399409366244073, 151001000000, 
-0.9847457304120115, 5.009661451432654, 2.3409793835465442, 151009000000, 
-0.6880868774149831, 5.290886097058512, 2.3414824635526625, 151014000000, 
0.6356386971577528, 6.290426225284974, 2.3425564175836135, 151019000000, 
-1.6140826448898316, 8.169565313636681, 2.341818703012546, 151024000000, 
-4.809858431940242, 5.6401275131524775, 2.3399385201374816, 151029000000, 
-1.1950741087612589, 5.094346931789401, 2.34011518971128, 151034000000, 
-0.49406049691472725, 5.30917731190693, 2.3411239128516415, 151039000000, 
-0.962575395221943, 5.409674589823713, 2.3412681788421406, 151044000000, 
1.2520462807917692, 7.104636178674491, 2.3421387962521147, 151049000000, 
-2.8831806730696217, 8.092327163017211, 2.3400375176058987, 151054000000, 
-5.221957126842255, 5.2215592929153996, 2.3381592434158756, 151059000000, 
-0.9815958945000254, 5.203260261473676, 2.3380701861263766, 151064000000, 
-0.678147419624877, 5.4258042687859875, 2.337882674873789, 151069000000, 
-1.1044487998900954, 5.529462060968666, 2.3376777632321515, 151074000000, 
-1.2369683539664234, 5.630716423301149, 2.3375267453060458, 151079000000, 
0.1506785620943878, 8.469569528625632, 2.3373336792694603, 151084000000, 
-5.16477732102631, 5.947271938536292, 2.3345928307458474, 151089000000, 
-1.2676496590911404, 5.335834906292199, 2.334705848398172, 151094000000, 
-0.695153460360109, 5.5668717296609715, 2.3349177175681124, 151099000000, 
-1.083330360107645, 5.6672095417867485, 2.33573614901949, 151104000000, 
-1.2962318168372344, 5.751003765399371, 2.335643051760056, 151110000000, 
0.06466350752833282, 8.288690735050343, 2.33648965128451, 151115000000, 
-5.519930875051729, 6.373478431026694, 2.3345824975145337, 151120000000, 
-1.9667764171270345, 5.335589515876849, 2.334798170308091, 151125000000, 
-0.6933017444460899, 5.680025659313655, 2.33525026287419, 151130000000, 
-1.1350387858524866, 5.766315803685073, 2.3357019972233735, 151135000000, 
-1.3537665480807004, 5.844303278459632, 2.336397153137878, 151140000000, 
0.906852410018045, 7.695789011959534, 2.3372171361861693, 151145000000, 
-4.658163516031833, 7.479320433210285, 2.3345593649641097, 151151000000, 
-2.038341331932293, 5.420845058947299, 2.3341200264508144, 151156000000, 
-0.7377761052601352, 5.754192751761322, 2.334389087830309, 151161000000, 
-1.1316181969466748, 5.856940049646245, 2.334553756670378, 151166000000, 
-1.3434646074737169, 5.944246420771355, 2.3343051402613977, 151171000000, 
-1.4534366604100737, 6.0197182386616035, 2.3336520713446376, 151176000000, 
-1.4774580328780236, 6.116398531856698, 2.333641869908725, 151181000000, 
0.7859304043260299, 10.162707055905456, 2.333003983923388, 151186000000, 
-5.210279165496879, 5.853684028973603, 2.331119144760132, 151191000000, 
-1.1243537870012927, 5.842295794513958, 2.3309274552257113, 151196000000, 
-1.1014471638227772, 6.039998601201473, 2.331518772792993, 151203000000, 
-1.4181724187996294, 6.141827232681945, 2.3320654213678043, 151208000000, 
-1.4769941602845864, 6.193481163330934, 2.3320629206415644, 151213000000, 
-1.5412462696919293, 6.271783048113021, 2.332647840362455, 151218000000, 
0.7455833240836108, 8.173892935421389, 2.3335326216270578, 151223000000, 
-5.117356322954631, 6.919871799065643, 2.3315304724452948, 151228000000, 
-1.841562587438608, 6.018223078712838, 2.331780168485376, 151233000000, 
-0.9939880818436946, 6.207313750856542, 2.3327180344614993, 151238000000, 
-1.2636908035303973, 6.214572770800433, 2.333125508682744, 151243000000, 
-1.486920944939635, 6.319615331482979, 2.333401126295326, 151248000000, 
-1.5601702247893683, 6.351212103085801, 2.3329855326329314, 151253000000, 
-1.5615891658362027, 6.415736099232577, 2.3333163993276798, 151258000000, 
-1.5542787722968394, 6.482669511819251, 2.3329714246723325, 151263000000, 
0.6965905448376356, 8.474970648241273, 2.3336147600873516, 151268000000, 
-4.937993901660214, 6.545821855601968, 2.3316561659924777, 151273000000, 
-1.6524212279059198, 6.288767804678592, 2.331134278756834, 151278000000, 
-1.170220645830774, 6.410765286761394, 2.331180531408548, 151283000000, 
-1.418396892018891, 6.4414157133135665, 2.331402324700301, 151288000000, 
-1.4741181169149173, 6.510469278006037, 2.3309545834006835, 151293000000, 
-1.5449318684216542, 6.550355298373518, 2.3309752066711504, 151298000000, 
-1.547338744937926, 6.609659738475791, 2.330827451680888, 151303000000, 
-1.5813873144471906, 6.656417827642004, 2.331221640881403, 151308000000, 
-1.5802990954203628, 6.711944673402628, 2.3314349280786577, 151313000000, 
-1.6236164807113087, 6.708501776319707, 2.3320246276806653, 151318000000, 
-1.5977231334614275, 6.771440954774335, 2.3325648945044173, 151323000000, 
-1.6002347909624992, 6.822521019940779, 2.332630937426925, 151328000000, 
-2.225379882063201, 8.313175527467976, 2.3320860906795082, 151333000000, 
-1.8375870290729701, 6.526554208015222, 2.332245926339979, 151338000000, 
-1.18207137429548, 6.699642137662922, 2.332314823500881, 151343000000, 
-1.3852467189371638, 6.769406331465909, 2.3326119777457115, 151349000000, 
-1.5310751486215166, 6.804201183405938, 2.332668998139837, 151354000000, 
-1.565514044098895, 6.774799767277446, 2.3328252082390453, 151359000000, 
-1.5580596634167936, 6.855616341360731, 2.3331398539433086, 151364000000, 
-1.5880044060118474, 6.887110123519751, 2.3332450285213056, 151369000000, 
-1.5821949849517156, 6.931543180872506, 2.333022244109545, 151374000000, 
-1.554003513805559, 6.933797542631259, 2.333193668806667, 151381000000, 
-1.5548854580581324, 6.973062432467552, 2.3324555534615468, 151386000000, 
-1.5340880297700845, 6.972855900496517, 2.333228639904932, 151391000000, 
-1.5753260299887062, 7.031767766409911, 2.333114136279388, 151396000000, 
-1.5628226241187058, 7.0550169580861315, 2.3332778868298565, 151401000000, 
-1.5403961763070724, 7.075348043469235, 2.3336464439439255, 151406000000, 
-1.5690488983477417, 7.059437087387733, 2.333509831689412, 151411000000, 
-1.5560264641449806, 7.087428067847122, 2.3336501182550315, 151416000000, 
-1.5505676102923147, 7.088580750576969, 2.3341119557419385, 151421000000, 
-1.5618022700703966, 7.135179973577198, 2.334208561366091, 151426000000, 
-1.5327184085524186, 7.088060555151897, 2.33445350609192, 151431000000, 
-1.5529445694089852, 7.1643633225848005, 2.3349439196591635, 151436000000, 
-1.5389612078521235, 7.134126070063239, 2.335264166401393, 151441000000, 
-1.4996356410123446, 7.173167663447265, 2.3353195872757024, 151448000000, 
-1.502057067721101, 7.193103973944694, 2.335191787484861, 151453000000, 
-1.5241382990157866, 7.243676327441829, 2.3354850069712154, 151458000000, 
-1.5059872591279229, 7.214502560147836, 2.3354875071895065, 151463000000, 
-1.4766288088620954, 7.218005673780288, 2.3356577112390493, 151468000000, 
-1.4952199700506266, 7.28916124042356, 2.33607632360557, 151474000000, 
-1.4816583071051945, 7.2716083960150435, 2.3362003947685768, 151479000000, 
-1.5024002873182243, 7.276399369377184, 2.3363583921936772, 151484000000, 
-1.4445916662203895, 7.3203512215760345, 2.3365007389048964, 151489000000, 
-1.437124658253846, 7.2916958630257245, 2.3371527083955432, 151494000000, 
-1.46389583151421, 7.318708273553088, 2.337314991375573, 151499000000, 
-1.4438317579307813, 7.330236588987027, 2.3373943087415365, 151504000000, 
-1.391537599914172, 7.3203524061489595, 2.337446016412722, 151509000000, 
-1.438313201662432, 7.356082646995646, 2.3380104203471026, 151514000000, 
-1.4082585352800705, 7.366426957820148, 2.338287871861207, 151519000000, 
-1.3745476825445293, 7.366127650616538, 2.3383687825168966, 151524000000, 
-1.385527313880598, 7.38022525523085, 2.3386009956647005, 151529000000, 
-1.3743541200270182, 7.405725220187573, 2.338591797524648, 151534000000, 
-1.3702166689360225, 7.388588737801182, 2.3387672223406684, 151539000000, 
-1.351500689779615, 7.458042175533421, 2.3386818777758345, 151544000000, 
-1.3546469139357937, 7.402450228454518, 2.3386813932952513, 151549000000, 
-1.3825654884181175, 7.4397548503898925, 2.339186234494809, 151554000000, 
-1.341063098219606, 7.406888762462248, 2.338852985514858, 151559000000, 
-1.3367560737402517, 7.450352863577839, 2.33955124110766, 151564000000, 
-1.3197938567296161, 7.441900780339426, 2.339691787768572, 151569000000, 
-1.341526633190422, 7.497140804322778, 2.339678760250938, 151574000000, 
-1.3136613612020753, 7.461965778520791, 2.3403379624603304, 151579000000, 
-1.2981577426950004, 7.507183118149746, 2.3411441857631163, 151584000000, 
-1.3159300413750696, 7.512335596132573, 2.34175193356761, 151589000000, 
-1.255891948265926, 7.500189355397194, 2.3426669133824927, 151594000000, 
-1.3159931186664695, 7.502393535224527, 2.342706679755722, 151599000000, 
-1.2900823172006182, 7.539199067571402, 2.3433710657944444, 151604000000, 
-1.2723181968465385, 7.5382941263991246, 2.343147241904288, 151609000000, 
-1.2429040812759409, 7.539020053816547, 2.3439383747513607, 151614000000, 
-1.234624313010917, 7.569588326242713, 2.3442485202085113, 151619000000, 
-1.2258503492150932, 7.555367395968044, 2.344289820613765, 151624000000, 
-1.2340343372426692, 7.562876953603127, 2.344587399212011, 151629000000, 
-1.2536732690673276, 7.578782134393835, 2.3443747474737346, 151634000000, 
-1.1981702029795778, 7.575162002811436, 2.3443558015636157, 151639000000, 
-1.1315204980150722, 7.582442933181099, 2.344709871549267, 151644000000, 
-1.1677318563451151, 7.60363225156391, 2.3442206999852604, 151649000000, 
-1.1585636956463237, 7.581781084184566, 2.344622305418471, 151654000000, 
-1.1200510063631124, 7.626289727108709, 2.3448300529489203, 151659000000, 
-1.1103059176405314, 7.600461910959647, 2.3450787730763305, 151664000000, 
-1.1446137683204543, 7.634488316457988, 2.3452400219567084, 151669000000, 
-1.1426247638513498, 7.670319563746452, 2.3456635669028487, 151675000000, 
-1.0961110817863542, 7.639018694677171, 2.3463441370011635, 151680000000, 
-1.066711527154796, 7.630413304508578, 2.347187871037569, 151687000000, 
-1.081299933033381, 7.6399570599349165, 2.3479544008614264, 151691000000, 
-1.0723820930902581, 7.691308335047309, 2.3489406233940775, 151696000000, 
-1.060292687101949, 7.658977347806014, 2.3493266520971616, 151701000000, 
-1.0326628917843972, 7.672714468421995, 2.3503291792845156, 151707000000, 
-1.0282219125441636, 7.681768329834892, 2.35079351844774, 151712000000, 
-1.0267081022063764, 7.681113469603154, 2.351808665717699, 151717000000, 
-1.0095582234122635, 7.665261890508348, 2.351687011866934, 151722000000, 
-1.0068603234575022, 7.708493782575808, 2.351587597371822, 151727000000, 
-0.9706456151562505, 7.7001330273763795, 2.3518666395724686, 151732000000, 
-0.9845406297420081, 7.72216644218004, 2.351726159162446, 151737000000, 
-0.9460192654340812, 7.7138876378451045, 2.351628256478274, 151742000000, 
-0.9491824356304192, 7.696054906164183, 2.3517173932935487, 151747000000, 
-0.9357105773127545, 7.715424185608878, 2.3516130434164, 151752000000, 
-0.906470093558825, 7.727898010954509, 2.351829918159482, 151757000000, 
-0.8945290977025846, 7.7502369356672745, 2.3526077425513807, 151762000000, 
-0.9082617905621418, 7.714082836508812, 2.352638361771329, 151767000000, 
-0.8944589597414355, 7.706964891452631, 2.3530273222543827, 151772000000, 
-0.8775949720242469, 7.739321739055033, 2.3533886925624596, 151777000000, 
-0.8705432395237449, 7.728775835319535, 2.354116497182024, 151782000000, 
-0.8598324274102763, 7.76473129058601, 2.354749094538968, 151787000000, 
-0.8484375571633312, 7.7377836396605035, 2.355865052224586, 151792000000, 
-0.8784048525170243, 7.761613259388975, 2.356713474518216, 151797000000, 
-0.8202274740227816, 7.709956659159251, 2.356737450304858, 151802000000, 
-0.8413085722470106, 7.737268921251111, 2.358182285391701, 151807000000, 
-0.7964767130986146, 7.758084198131737, 2.3585377127697553, 151812000000, 
-0.7987946667838112, 7.73124236144819, 2.359437013066414, 151817000000, 
-0.7825176217569401, 7.7599427258871305, 2.3595785204416226, 151822000000, 
-0.8012159091458687, 7.75841876192812, 2.359757834515817, 151827000000, 
-0.7640034221090974, 7.727423539691261, 2.360779483819046, 151832000000, 
-0.7331888066139463, 7.73666209343574, 2.360815105398829, 151837000000, 
-0.692263255305223, 7.746099302908026, 2.360801479977407, 151843000000, 
-0.7330858180778738, 7.74398899062737, 2.3607577782873053, 151848000000, 
-0.6985951772571559, 7.729444691614437, 2.360992150281096, 151853000000, 
-0.6801887373673181, 7.75225361069463, 2.361181327949151, 151858000000, 
-0.6462584073061931, 7.7246138150849655, 2.3612838741283624, 151863000000, 
-0.7030304643257771, 7.742594804872966, 2.36160103242776, 151868000000, 
-0.6634287003070022, 7.7347465293135995, 2.361921664999984, 151873000000, 
-0.658052371160794, 7.7456648580142815, 2.362690272390902, 151878000000, 
